accx,accy,accz,activity
-0.248297687,0.269304046,-0.826970979,4
0.000291354,0.11566334,0.375967421,4
-0.027349993,-0.225554522,0.26937217,4
0.091236894,0.023403265,0.201819682,4
-0.008951085,0.233230662,-0.123463966,4
-0.329176985,-0.150581195,-0.216692774,4
-0.218823845,0.032038409,-0.029304277,4
0.173531547,0.05147133,0.020935594,4
0.061127997,0.150031574,0.266826696,4
0.052230666,0.093641432,-0.198589703,4
0.226629107,0.049861658,0.004468911,4
0.262567081,0.074134046,-0.063610973,4
0.010683855,-0.1613677,-0.154106201,4
-0.153953112,0.017048111,-0.037144381,4
0.101306548,0.124455585,0.046896389,4
-0.28616733,-0.047855351,0.200847148,4
-0.129079615,-0.088566532,-0.102647322,4
0.138351546,0.010112689,-0.065377895,4
0.043933313,-0.05659536,0.055717239,4
-0.04547283,0.021745457,-0.121859374,4
0.089248819,0.038019434,0.04322229,4
-0.0184717,0.008736033,0.036015085,4
-0.072442665,-0.015791099,-0.002434105,4
-0.018053304,0.010564226,0.011065376,4
-0.006398824,-0.005314303,-0.069129238,4
-0.148196397,-0.080171181,0.076320779,4
-0.005997205,0.053331091,0.084701259,4
0.041098257,0.099765874,0.165803542,4
-0.011914229,-0.009726724,-0.02381469,4
-0.030718174,0.008872842,0.048246608,4
0.059302067,0.052627186,0.002910797,4
0.062679465,0.045285601,-0.115865777,4
-0.138960968,-0.095354467,0.063044916,4
0.033355574,-0.026554118,0.086493224,4
0.05317997,0.07749835,-0.108194631,4
0.038707997,0.051959879,0.023893986,4
0.036981098,-0.03343168,0.015183678,4
0.024879459,-0.021909272,-0.044187492,4
0.0099231,0.047356116,0.004364587,4
-0.022995906,-0.01259895,-0.056890494,4
0.001955483,0.02340685,0.09419996,4
-0.166696172,0.026173614,-0.085206575,4
-0.067715004,0.006226763,0.178001395,4
0.096450387,-0.021078651,-0.056963783,4
0.029903115,-0.020485671,0.08233512,4
0.012369001,-0.022934348,-0.144873992,4
0.086805116,0.023539306,0.005868636,4
0.095493631,0.074531016,-0.170099988,4
0.030079268,-0.026204517,0.078337069,4
0.209623892,0.23031032,-0.755464208,4
0.281704557,0.350952059,-2.309326736,4
0.135491057,0.343895583,-1.725140059,4
0.248563422,-1.016797768,0.810010934,4
-1.682811526,-0.001772135,2.264657296,4
-1.984845092,-0.155297611,4.553663222,4
-0.838331535,0.105106144,4.622449053,4
1.562894828,-2.072165634,-0.458599305,4
0.601539654,-4.148214713,2.193683253,4
-1.138653067,-3.147026025,1.160610821,4
-3.25185608,-0.336708777,-4.74443828,4
-0.00026589,-0.699760638,1.619606746,4
0.556224384,-0.114311157,-0.542883181,4
-0.43249827,0.651975501,-2.689125479,4
-0.484611053,0.467358697,-2.033446359,4
1.711727305,-2.015330088,-0.599150973,4
1.403367923,-0.074707802,1.307114299,4
1.117918395,0.495767485,-0.60956293,4
0.275313569,-0.278919755,-0.443864457,4
-0.083943077,-0.670255364,0.542327274,4
-0.437845557,-0.384911003,-0.032317525,4
-0.50897156,-0.338030047,0.142345844,4
0.077560737,-0.007486736,0.017220663,4
-0.20540777,-0.155228111,0.226277293,4
-0.034742037,-0.193811906,0.224660044,4
0.155586792,-0.030248582,-0.163640016,4
0.181682186,-0.057236772,0.210795449,4
0.030166577,-0.120585339,0.250631313,4
0.212605045,-0.030490847,0.274950492,4
0.053554833,-0.041943768,0.127163697,4
-0.084224337,-0.134318329,0.12133058,4
-0.06010021,-0.119896972,0.421787677,4
-0.100337482,-0.086821031,-0.272006291,4
0.115649402,-0.020931932,0.261473147,4
-0.017993584,-0.047849126,0.055825958,4
-0.106474427,-0.079774728,-0.116192354,4
0.005904639,-0.076504412,0.04133238,4
-0.048457276,-0.064341224,-0.16295812,4
-0.091431228,-0.094475197,0.084093725,4
-0.16554405,-0.088760853,-0.090453162,4
-0.011051933,-0.035607327,-0.11968609,4
0.028233749,-0.013944431,0.172341495,4
0.005567891,-0.030590673,-0.009477583,4
0.147993088,0.030097898,0.113613249,4
0.07501536,-0.035026743,0.073219226,4
0.023094208,-0.039493246,-0.054073356,4
0.023689581,-0.005862502,-0.070695869,4
0.029334531,-3.04E-05,0.084735728,4
-0.061076109,-0.029188092,0.098553384,4
-0.12264406,-0.008154698,0.03815664,4
-0.050625619,-0.014217776,-0.101370191,4
0.114586421,0.114281942,0.012778676,4
-0.179603144,-0.069598629,-0.044589192,4
0.030920237,-0.015148108,-0.06788759,4
-0.012399456,0.016827544,-0.02622941,4
0.034183206,0.064012923,-0.112313111,4
-0.02123406,0.006264776,-0.04657041,4
-0.006205159,-0.012281821,0.107842888,4
0.078222713,0.03418918,0.082005152,4
-0.021238575,-0.016993639,0.179789528,4
0.056148168,-0.045463825,-0.077243589,4
0.048172187,0.028094265,-0.042278341,4
0.021986666,-0.016026846,0.031070722,4
-0.03068486,-0.044451453,-0.039349736,4
0.040923259,0.003238848,-0.022130132,4
0.015958177,-0.026691651,-0.103026346,4
0.003982396,0.031828351,0.109318079,4
-0.093698419,-0.077937835,-0.054030963,4
-0.01575839,0.018138338,-0.017227985,4
-0.018752706,0.037970245,-0.021121168,4
0.023759416,-0.004417442,-0.039941749,4
0.042355664,-0.009679867,-0.088716348,4
-0.032426412,-0.037310738,0.025571471,4
0.097738687,0.020605386,0.027407935,4
-0.045394048,-0.030284621,0.103460976,4
0.053850993,0.020801401,0.07052305,4
0.020623685,0.064909292,-0.032354497,4
0.017334221,-0.006259877,-0.062768186,4
0.036282837,-0.025782842,0.015762272,4
0.016472425,0.02625902,0.01055256,4
0.055133092,0.052706578,0.073279806,4
-0.082486401,-0.024901069,-0.046874221,4
-0.029250801,0.026549072,-0.316250698,4
0.037193357,-0.011311646,0.148622272,4
-0.030625736,-0.101969571,0.06384426,4
-0.035119229,0.018632003,0.135998553,4
0.103109525,0.0718747,0.02038789,4
-0.022830312,-0.030916221,-0.018221804,4
-0.007710065,-0.010148604,-0.123869119,4
0.024147209,-0.018404764,-0.082651341,4
-0.053275231,0.029114755,-0.04525958,4
-0.050659427,-0.006354589,0.038379261,4
-0.078166797,-0.000574731,-0.065818957,4
0.006306953,-0.027649344,0.021664469,4
-0.016218649,0.006587528,-0.181646753,4
0.050747453,0.030516091,0.045323082,4
-0.023498057,-0.055032498,0.062423281,4
0.017192771,-0.005932523,-0.119329405,4
0.011184661,-0.003591722,0.022383618,4
-0.047979227,-0.026753323,0.033992094,4
0.006517998,-0.024083463,0.099362914,4
-0.015175533,-0.009530605,0.015529389,4
0.127838525,0.033435812,0.115041812,4
-0.027590354,0.016690745,-0.105164999,4
0.033345437,0.006260574,-0.115333945,4
-0.029793033,-0.029308079,-0.098313183,4
0.037845256,0.018797701,0.002059667,4
-0.018248593,0.009349712,0.100483204,4
-0.044421711,-0.037679741,0.158746129,4
-0.013148176,0.031963756,-0.075464834,4
0.099189059,0.029935622,0.027454963,4
-0.019823476,-0.026418,-0.087299326,4
0.125344581,0.011823224,-0.013102883,4
0.048540564,0.043428753,0.052783097,4
0.039051114,0.005840574,-0.089333675,4
0.062539441,0.093031081,-0.00408235,4
0.026780899,0.020606939,0.152723926,4
-0.103581144,-0.038531643,0.1220468,4
-0.010072889,0.011273598,-0.024509957,4
0.033982464,0.043826495,-0.049820461,4
-0.395515663,0.371156325,-0.073374456,4
0.03921174,0.061160801,0.178631725,4
0.024040732,0.097288577,-0.09944485,4
0.026632101,0.018889848,-0.159001968,4
-0.049310931,-0.090238778,0.089177128,4
-0.0548376,-0.010661459,-0.029213872,4
-0.012593141,0.026390518,0.064748107,4
0.032977781,0.037563133,0.061592351,4
-0.124405395,0.000516492,-0.043475028,4
-0.072108286,-0.004065186,-0.112687514,4
-0.064124341,0.004745255,0.071307426,4
-0.01179617,0.034189454,-0.044153376,4
0.009285695,0.015182453,-0.080774722,4
-0.1327896,-0.047525072,0.030818619,4
0.01652439,0.046606163,-0.019484109,4
0.081067981,0.031971465,0.161869197,4
0.006187038,-0.000145797,-0.071177607,4
0.036773293,-0.024509114,-0.019904191,4
0.015015649,-0.00017166,-0.034973603,4
-0.046003378,0.013530447,-0.183296566,4
0.189312078,-0.016880158,-0.124401558,4
0.30007106,-0.023814464,0.212011025,4
-0.046063207,-0.004448565,-0.071187121,4
-0.017557369,-0.003503438,-0.098946994,4
0.03086189,-0.03048139,0.323687279,4
-0.06374784,0.010395043,0.15767218,4
-0.021564688,-0.032527378,0.071956758,4
-0.117604652,0.057951708,0.319159136,4
-0.049566388,0.057577383,-0.055733743,4
-0.045246094,0.042095591,-0.009327731,4
-0.032965632,0.002477945,0.056518782,4
0.077112236,0.056786978,-0.199909136,4
0.075087503,0.054159148,0.0497979,4
-0.11968125,-0.016892921,-0.093930243,4
0.038310988,0.002081528,-0.25309215,4
0.076859724,0.001019341,-0.005624405,4
-0.052211258,-0.027745786,-0.007529396,4
-0.00551951,-0.033175124,0.148499207,4
-0.050914394,-0.031019082,0.008678199,4
0.131147112,-0.002039824,-0.053248339,4
0.049088267,-0.023192177,-0.128063065,4
-0.031811419,-0.042196958,-0.048039541,4
-0.004134312,0.047673232,-0.066596897,4
-0.114625968,0.007597382,0.058216342,4
-0.055953607,0.022896472,0.167823344,4
-0.043424035,0.010284497,-0.043494606,4
-0.08396524,-0.047158762,-0.016040095,4
0.046325341,0.05126509,-0.031367602,4
0.050607142,0.005812749,0.070957653,4
-0.060828862,0.004610545,-0.116648981,4
-0.010683016,0.000162557,-0.092553574,4
0.21267008,0.073416079,0.085935834,4
0.125423757,0.074396717,0.006366089,4
-0.028627845,-0.083979016,0.160858709,4
0.128103027,0.026518208,0.076563182,4
0.088931858,0.061413195,-0.025569565,4
-0.018104184,-0.010480321,0.014531157,4
-0.060474867,-0.019765769,-0.091418016,4
0.036593552,-0.004836938,0.011958174,4
-0.090644885,-0.015134101,-0.120845018,4
-0.003218386,0.075086551,-0.021851054,4
-0.086528782,-0.051066725,0.0997452,4
-0.089675246,-0.048848908,0.105814701,4
0.103096781,0.025427589,0.003591454,4
0.004893562,0.019388137,-0.090674486,4
-0.012202532,-0.014586577,-0.098013239,4
0.04138228,0.015509987,-0.13358948,4
0.0362913,-0.024933186,0.094984228,4
-0.063091021,-0.003946498,-0.01222386,4
0.012908564,0.014841427,-0.018373255,4
-0.009874302,0.033237953,0.012154919,4
-0.0324395,0.02124785,0.010346163,4
-0.009263558,-0.018825812,-0.01826375,4
0.014453559,0.009320724,-0.04959599,4
0.060085743,0.021574212,-0.047694636,4
0.031819312,-0.015904151,-0.04954871,4
0.039030207,-0.003024612,-0.063850321,4
0.025948126,0.007291912,0.127580664,4
-0.125819901,-0.080002412,0.135519126,4
-0.027601057,0.009453498,0.055425866,4
0.035456681,0.05182388,-0.121416195,4
-0.027107646,-0.024375616,-0.107117061,4
-0.00796968,-0.027769652,-0.080450937,4
0.120357394,0.033802338,0.061846001,4
0.02708688,0.02675085,0.03981731,4
0.042129411,-0.000907401,0.104031776,4
0.02497255,0.010218465,-0.062994112,4
0.021407456,-0.005202271,-0.024394429,4
-0.013515929,0.004372927,-0.045179122,4
0.005152573,-0.004116966,-0.000414287,4
-0.025884133,0.041882554,-0.047445773,4
-0.04985008,0.004116559,0.067403597,4
-0.024348721,-0.0228783,0.031320146,4
0.044769704,0.046839049,-0.046164608,4
0.02152742,-0.033306105,0.057916346,4
0.00459544,-0.083147003,0.078068413,4
0.061780839,0.053139549,0.062451186,4
0.05710945,0.023771512,-0.101791482,4
-0.068994602,-0.009965742,-0.059504343,4
0.033241476,0.013939121,-0.003767497,4
-0.016235562,0.005137184,-0.016561994,4
-0.074732441,-0.019165842,0.061705207,4
-0.031905223,-0.041725491,-0.028945989,4
0.022964837,-0.010237725,-0.090489058,4
0.044666756,0.022857663,-0.025826389,4
0.089104589,-0.016361383,0.008568851,4
-0.011000276,-0.005074095,0.043975474,4
0.015099174,0.01643148,0.061531528,4
-0.051026175,-0.025994246,-0.075837699,4
0.011594212,0.064240944,0.024242295,4
-0.077561029,-0.055521335,-0.103188501,4
-0.07477978,-0.033711553,0.119230708,4
-0.002663803,0.034489296,0.021744796,4
0.017201767,-0.004099777,0.011472334,4
0.023654345,-0.014337224,-0.048189544,4
0.009093754,-0.016751966,-0.104581674,4
0.08737113,0.015361175,0.013242606,4
-0.001086846,-0.014555006,0.069776683,4
0.065130795,0.015170984,-0.007166465,4
-0.026846432,0.02789028,-0.071032754,4
0.05601416,0.019596587,0.002875686,4
0.024464297,0.046970639,0.038941421,4
0.005376038,0.03374518,0.056715832,4
0.006399763,-0.011763483,-0.073400289,4
-0.062044136,-0.021743121,-0.021722,4
-0.031436786,0.026048971,0.037714723,4
-0.024023419,0.026088015,0.007394692,4
-0.069984585,-0.03858512,0.044838652,4
-0.014647172,0.020951792,0.057907981,4
0.069549644,0.048285775,0.004071539,4
-0.024329213,-0.021423914,-0.092795221,4
0.01444217,-0.055666268,-0.023751294,4
0.077182063,0.050592222,-0.090127972,4
-0.027193955,0.023093417,0.001016962,4
-0.019362486,-0.014888015,-0.007985397,4
0.023338012,-0.001379751,0.083865118,4
0.000122185,0.024381582,-0.02727482,4
0.047582319,-0.01587133,0.088322732,4
0.015780945,-0.017831972,-0.042808724,4
-0.011378748,0.018902137,-0.087771634,4
0.034921769,0.024888349,-0.075521798,4
-0.044073706,0.016694197,0.084966961,4
-0.004498574,0.042765798,0.096122928,4
-0.003880371,-0.02290845,-0.000653667,4
-0.014267773,-0.026339221,0.132014106,4
0.102382396,0.079831511,0.019598828,4
0.090232074,0.012943755,-0.04892202,4
-0.07154806,-0.03797143,-0.104836666,4
-0.031978386,0.010603689,-0.04937586,4
-0.017854391,-0.005959414,0.029297229,4
-0.101309304,-0.028122046,0.053626113,4
-0.033369187,-0.02536942,0.071054978,4
0.088243561,0.021730683,-0.105920089,4
0.032091914,-0.03233553,0.003349087,4
0.095251545,0.022804372,-0.046293751,4
0.010425696,-0.027998919,0.018267704,4
-0.018125681,0.032862869,-0.014193379,4
-0.019154591,0.008722246,-0.041210033,4
-0.004613237,0.011855234,-0.005408374,4
-0.030614614,-0.050026124,-0.267129418,4
-0.262233195,-0.110370105,-0.236218025,4
-0.316176855,-0.192918441,-0.225987849,4
0.091287745,0.070399222,-0.012945281,4
0.246450155,0.30713214,0.39058771,4
0.072982774,-0.042550632,0.58662841,4
0.094385717,-0.018484187,0.248919646,4
0.053043762,0.018839894,0.163547695,4
0.16425999,0.001061402,-0.036230536,4
0.170366459,0.049375663,-0.207223908,4
-0.07902539,-0.065150637,-0.383938541,4
0.057514878,-0.07120861,-0.037462147,4
-0.055922577,-0.045443057,0.159254256,4
-0.119504542,-0.021647982,0.2946458,4
-0.168260526,-0.025553195,0.125367545,4
-0.041119078,0.036492401,0.044861224,4
0.029100483,-0.011169615,-0.072763506,4
-0.046893396,-0.048581979,0.146044258,4
-0.105767346,-0.070069444,-0.07387751,4
0.11262991,0.061676535,-0.22119299,4
0.126215036,0.022430948,-0.158603503,4
-0.016629718,-0.06577666,-0.148598933,4
0.032701317,0.018844122,-0.038834437,4
-0.114245536,0.098750048,-0.032200141,4
0.002332307,-0.058976057,0.22027339,4
0.106834508,0.043610719,0.120218734,4
-0.017861543,-0.032320719,0.002107552,4
-0.013567531,-0.018192737,0.045776029,4
0.038277033,0.004746273,-0.202985711,4
-0.06263978,-0.005595765,0.02830599,4
-0.012909087,-0.021207031,0.032739933,4
0.014923181,0.017150786,0.013807503,4
0.055255223,-0.008338381,0.058526442,4
0.012663286,-0.053650974,0.036779833,4
0.033981814,-0.028027176,0.047167847,4
0.183832443,0.083473735,0.074012722,4
-0.014871613,-0.033130373,-0.028105411,4
0.017351249,-0.007834046,0.065783639,4
0.038837019,0.031427094,-0.009908425,4
-0.009937962,0.046303417,-0.108657046,4
-0.064821763,-0.019879686,-0.061801848,4
-0.073706446,0.006853259,0.070876031,4
-0.035782064,-0.005167872,0.013057505,4
0.010383793,-0.014763612,0.063913889,4
-0.025684336,0.003480092,-0.09915188,4
0.049150888,0.056357587,-0.090650752,4
0.057837764,0.040993775,-0.030304242,4
0.005912596,0.042104927,-0.032003311,4
-0.0851398,-0.064612229,0.113539944,4
-0.088185102,-0.058849675,-0.032978026,4
-0.039872072,-0.030353026,0.079206688,4
0.032291945,0.028459079,-0.132402281,4
-0.040267195,-0.030083834,0.030563007,4
0.021655279,0.016602651,-0.191159704,4
0.040226572,0.02986734,-0.012855656,4
0.043496442,0.013803275,0.106828631,4
0.006366739,-0.01560684,0.137628634,4
-0.024240905,0.005875473,0.006726599,4
0.067629758,0.033427746,-0.060376549,4
0.014622376,-0.006860551,-0.082060615,4
-0.027392077,0.046748116,-0.057301655,4
0.056418944,0.011428863,0.082553423,4
-0.099379033,-0.070458572,0.137378585,4
0.048966799,0.090285694,-0.080782728,4
0.023140644,-0.009866759,0.039960998,4
-0.147932439,-0.11448421,-0.011846559,4
0.048484176,0.001255162,-0.037553651,4
0.053792594,0.07707729,-0.131699603,4
0.045615484,0.01567811,-0.204924209,4
0.948634381,-0.16508656,-0.938700183,4
0.380903699,-0.140526394,-0.584475482,4
0.213553379,0.256486192,-0.452300791,4
-0.439441393,-0.135119738,0.055382633,4
-0.680135045,-0.399728314,0.765468025,4
-0.48353895,0.003824211,0.128489587,4
-0.098144811,0.09767922,0.399860563,4
0.211334019,-0.573062455,0.788695932,4
-0.252990707,-0.364548768,1.420468624,4
-0.554149517,1.124573836,0.828685181,4
0.540671235,-0.571925705,-1.249659695,4
-0.238863561,-0.216128692,-0.494048689,4
-0.554777756,0.339359706,-0.153963013,4
-0.010773911,-0.150149654,0.058974767,4
0.264486295,0.256622153,1.17584397,4
-0.170338451,-0.018156491,1.364038597,4
-0.196540657,-0.323889553,0.752889624,4
0.115871576,0.002099594,0.160734484,4
0.254659997,0.081834389,0.118243008,4
0.143628295,0.064735584,-0.061345991,4
0.204004298,0.072804674,-0.276713412,4
0.077482548,-0.00135772,0.075038813,4
-0.026484306,0.008957556,0.065827851,4
0.003631955,-0.016225933,0.200460827,4
-0.110933139,-0.014918959,0.219044739,4
-0.061483804,-0.02959757,0.037193031,4
0.047608139,0.09276156,-0.11470485,4
0.063358729,0.018770949,-0.297166393,4
0.46188246,-0.439040998,-0.585608305,4
0.702689969,-0.367949323,-0.99057261,4
0.347037676,-0.130988538,2.147630162,4
0.517118512,0.379313065,1.352941472,4
0.145570803,0.432427007,0.608769741,4
-0.805788511,-0.332117349,-0.177597293,4
-0.579081328,-0.127998793,-0.150443743,4
-1.178016019,0.927649949,-0.625726652,4
-0.034151072,0.446978688,0.694870133,4
0.410636473,0.695942115,0.870498952,4
-0.005376968,0.006477136,0.662753582,4
0.292894549,-0.056773041,0.654803451,4
0.783790526,0.281371617,0.289978967,4
-0.744639347,0.699717514,-0.307194028,4
-0.056332059,-0.062777997,-0.056276447,4
-0.213282688,0.161346455,0.062371538,4
-0.549934852,0.064914645,0.575925695,4
-0.237970624,0.033914943,0.185527999,4
-0.088018137,0.270482757,0.095317659,4
-0.312941446,0.26923047,0.40897459,4
0.143947171,0.177364087,0.412108557,4
0.102556382,0.280999231,-0.35107845,4
-0.289119696,0.024904641,0.351935018,4
0.230416357,0.001675936,0.483624914,4
0.593630982,-0.018471715,0.186856257,4
-0.42783391,0.232237193,0.111873282,4
-0.304458764,0.102451214,-0.515631915,4
-0.177446166,0.207803592,-0.073985123,4
-0.278278673,-0.044319767,0.611312586,4
-0.00758177,0.140884827,0.209804649,4
-0.099703063,0.248977321,-0.251628183,4
0.076897192,0.027751763,0.42428056,4
-0.129777366,0.3629055,-0.246309368,4
0.071864498,-0.188733528,-0.220171691,4
0.043392256,0.075159699,0.058143168,4
-0.022006656,0.14596264,-0.127678524,4
-0.295728684,-0.121760773,0.191046078,4
-0.028663952,-0.038547595,0.010135963,4
-0.139726096,0.065590546,-0.013123871,4
0.120089225,0.107310631,0.178741118,4
0.07025871,0.103476949,-0.221795377,4
0.04476903,0.060340506,-0.21457884,4
-0.112203101,-0.065563937,0.263485616,4
-0.017963935,0.048226812,-0.095225847,4
-0.111468171,0.001569748,-0.047292854,4
-0.018737319,0.047898224,0.036340899,4
-0.068234716,0.041370601,0.013168164,4
0.105554784,0.141276351,-0.079981885,4
0.096944603,0.02590187,0.177908937,4
-0.037373064,-0.011158381,-0.058824893,4
0.136663258,0.04378195,-0.023788734,4
-0.025686756,-0.008657575,-0.077208159,4
-0.299663548,-0.12814391,-0.084110483,4
-0.025606949,0.038552341,-0.069475821,4
-0.100732575,-0.035338358,0.04342407,4
0.049266825,0.000793595,0.027168003,4
0.184351398,0.085706399,0.14981742,4
0.049038206,0.063499083,-0.102054565,4
0.112129975,0.034343496,0.104344047,4
0.126672624,0.021850532,-0.037772269,4
-0.001312414,0.122108417,-0.189940621,4
-0.074886945,-0.060772147,0.081794418,4
-0.122333613,0.001910065,-0.036154746,4
-0.010535639,0.059411006,-0.061335492,4
-0.259104725,-0.105002866,0.157075286,4
0.00492605,0.010886954,0.000947807,4
0.116157227,0.084146239,0.114200791,4
-0.026609643,-0.027432544,-0.013838501,4
0.212484732,0.006717702,-0.066853202,4
0.085634909,0.109623238,-0.140443288,4
0.009187773,-0.008559741,0.062350273,4
0.005737001,-0.002410451,0.047347005,4
0.044552819,0.018069806,0.041241809,4
-0.05444999,-0.001085537,-0.036603266,4
0.000184955,-0.006048728,-0.023083786,4
0.078578311,-0.013473135,0.070761304,4
-0.022078437,-0.008305646,0.102350022,4
-0.03171049,-0.000607268,-0.080256651,4
0.088358525,0.008978032,0.083904381,4
0.072312369,0.096521758,-0.196086854,4
-0.006487382,-0.074719556,0.062430669,4
0.062759211,-0.035300258,0.078081502,4
-0.07378421,0.104837614,0.084123122,4
-0.153206714,-0.101882598,0.054616997,4
0.111854727,-0.028388809,0.158044402,4
-0.218473482,0.059127401,0.36711277,4
-0.242291489,0.010141863,0.503607297,4
0.015239267,-0.200101709,-1.218621941,4
-0.014269616,0.187399293,0.795065493,4
0.109324636,-0.15109281,-0.382220232,1
-0.136058868,0.186025991,-0.033726272,1
-0.086414723,-0.032455368,0.064630559,1
0.019001355,-0.098108834,0.014535107,1
-0.079014222,0.045483945,-0.13681885,1
-0.087542956,0.046652923,-0.022741578,1
0.03633994,-0.040239717,0.004476259,1
-0.104805199,-0.016383537,0.088790501,1
0.151486214,0.03298029,-0.045445334,1
-0.072390139,0.169415381,0.019581236,1
-0.232280719,0.161292718,0.156293211,1
-0.593492575,0.148534265,0.125692191,1
-0.095239092,0.135981825,-0.122373299,1
-0.931297398,0.410872903,0.095153038,1
-0.518600971,0.344035801,-0.536547852,1
0.202082453,0.14394143,0.536609413,1
2.450615049,-0.450041065,0.345903787,1
0.79418165,-1.255345364,-1.886878773,1
0.754942038,-1.668013514,-1.33042284,1
1.667370704,0.035106691,1.374464426,1
1.082397467,0.307399539,1.691572885,1
2.617761581,-0.804777605,-0.512686875,1
2.401374443,0.095093983,-1.737477009,1
2.214865075,-0.799667631,0.129918873,1
2.203767381,-0.203332595,0.761074679,1
2.221534683,0.524298661,0.684885883,1
1.652932601,0.530789384,-0.360978197,1
0.989258894,0.491355653,0.03376208,1
1.204874413,0.14431694,-0.073086202,1
0.529400749,-0.164679096,-0.276494283,1
0.180513048,-0.328176553,-0.562485507,1
0.990876504,-0.117357422,0.058749023,1
0.265287307,-0.238680574,0.000976342,1
0.086869684,0.155449793,-0.598265834,1
0.153565558,0.075588175,0.072190719,1
-0.067931283,-0.344321914,0.515688539,1
-0.54230505,-0.83941601,0.657862033,1
-0.274006332,-0.682524129,0.078334015,1
-1.032180237,-0.456070854,-0.49396555,1
-0.688776575,-0.34826486,0.420718057,1
-0.253478705,-0.267009786,0.530495908,1
-0.605253726,-0.377251678,-0.081866841,1
-1.054046314,-0.118855543,-0.746610741,1
-0.928455441,0.433779561,-1.276994343,1
-0.798324938,0.740888416,-0.568842048,1
-0.605885633,1.071255348,-0.131612889,1
-0.901529785,1.342421307,0.109566298,1
-1.137775582,1.451875958,-0.018365919,1
-1.310631726,1.391790269,0.004136998,1
-1.549704929,1.106298968,-0.279892467,1
-0.441354365,0.463938251,0.926060462,1
0.236105008,0.080388726,1.450352834,1
0.42850963,0.152905964,-0.462250314,1
1.314485615,-0.652944593,-1.026304959,1
0.577893244,-0.650935106,-1.191737391,1
-0.473986801,0.252220565,-2.345951974,1
-0.160232185,0.934256477,-2.156018416,1
-0.179001811,1.064358025,-1.065338842,1
-0.617661565,1.191050251,-0.441798111,1
-0.533944517,1.329081246,-0.292894062,1
-0.909882339,1.618491277,-0.71220485,1
-0.964974256,1.464048561,-0.234236627,1
-0.686971575,1.487236985,0.573086797,1
-0.93432921,0.736313219,2.102163273,1
-1.036047313,0.431892014,1.494789161,1
-1.865330613,0.033885825,0.175047563,1
-1.842197003,-0.632431202,0.679605968,1
-1.415357515,-0.939755388,1.641559264,1
-1.695235394,-0.742147109,-0.328690734,1
-1.44244489,-0.257308852,-1.278458871,1
-1.402591727,0.896267162,-2.060981073,1
-1.096465681,0.484105039,-1.41321228,1
-1.124439982,0.21577089,-0.638810848,1
-1.025732545,0.451960226,-0.652282634,1
-0.959292466,0.82295467,0.457143606,1
0.137804615,0.256677256,0.334764849,1
-0.280362807,0.143015628,2.202577365,1
0.722327649,-0.079548089,0.698927674,1
0.366452703,-1.162596835,1.660490615,1
-0.811878733,-0.919420137,-0.633513421,1
-0.401365137,-0.349245215,-1.958140911,1
-0.444230655,-0.160207197,-0.595939424,1
-0.84233211,0.413660997,-1.204439664,1
-0.582595465,0.896377082,-1.543634992,1
-0.383820267,0.924718921,-1.322357334,1
-0.679391461,1.036818729,-1.420838612,1
-0.717937626,1.354170691,-0.807351861,1
-0.828876151,0.736442394,1.202163478,1
-1.238915685,0.836447977,2.477560757,1
0.018391471,-0.312969242,1.690617721,1
-2.078547691,-1.463555893,2.371518921,1
-2.443536906,-1.150040557,-0.497656413,1
-0.907679105,-0.589956605,-0.843146733,1
-0.631363828,-0.169807973,-1.250641324,1
-1.45046723,-0.049842981,-1.516133323,1
-1.358067602,0.226359039,-0.465949297,1
-0.664976978,0.538693268,-0.155952579,1
-0.601236969,0.335566776,-0.021552593,1
-0.719515877,0.67261228,0.356318228,1
0.220700539,0.773902529,-0.315355404,1
-0.233880586,-0.076761758,2.197806953,1
0.153520048,-0.651696931,1.928457367,1
0.314981725,-1.159127633,0.91196694,1
-0.412289193,-1.209111063,-0.562759609,1
0.058904516,-0.535544587,-0.949490709,1
0.152355944,0.108152927,-1.088474667,1
-0.696210692,0.318991491,-1.941529031,1
-0.93426456,0.561056943,-1.250740893,1
-1.114407064,0.883746315,-0.883701671,1
-0.720936215,1.479807366,-1.421894328,1
0.456082724,1.807755986,-1.000177092,1
-0.503766093,0.591911952,1.517259894,1
-1.39049701,0.010486315,1.713754024,1
-1.444899007,-0.9390076,2.020688094,1
-2.847282309,-1.486274423,1.913356932,1
-1.812894303,-1.099298368,1.363843399,1
-0.882353447,-0.462571693,0.244366434,1
-0.894094506,0.391389386,-2.812017399,1
-0.999337923,0.565492175,-1.421488431,1
-0.723759573,0.219706987,-0.934643003,1
-0.722175389,-0.043462416,-0.896600474,1
-0.271933077,0.229755414,0.696996139,1
0.726316111,0.562940249,0.524797296,1
-0.042566538,0.023986093,0.462858635,1
0.594057193,-0.512223767,1.656277128,1
1.486934163,-1.005973981,1.771428436,1
0.167914006,-1.283668599,0.444611078,1
0.604221985,-0.535824941,0.110559868,1
0.726759168,0.092051932,-0.647346083,1
0.252617717,0.660151431,-2.537394594,1
-0.097090281,1.045147045,-3.305426549,1
-0.549271712,0.918722395,-1.937440681,1
-0.95754956,0.703824402,-0.134802164,1
-1.268607466,1.242243099,0.985947132,1
-1.022248627,1.553274053,1.439704032,1
0.38405219,1.441565661,2.068585889,1
-0.203811312,-0.736495376,2.718848092,1
-2.262857727,-1.955086745,1.92050225,1
-0.644970223,-0.916890184,-0.466246189,1
-0.632973151,-0.517476457,-1.347752241,1
-0.605064842,0.000385411,-2.227101459,1
-0.62152488,0.413270676,-1.588029285,1
-0.343176954,0.323537466,-0.310277839,1
-0.139781659,0.227804497,-0.046651018,1
-0.264742948,0.423419903,0.445505834,1
0.19664023,0.55667459,0.131018429,1
0.276273108,0.214612374,1.554386659,1
0.676590514,-0.786550479,3.380730652,1
0.684386131,-1.328260348,1.626776959,1
0.175009662,-1.160202883,-1.467335706,1
0.293668881,-0.486116747,-2.931391611,1
0.104765908,-0.215337364,-3.086003275,1
-0.728829989,0.036817192,-2.275141219,1
-1.020551263,0.508991093,-1.044260818,1
-0.639360964,0.795351647,-0.505100252,1
-1.330009119,1.10549784,-0.309656728,1
-1.546811905,1.041952283,1.28690775,1
-0.734150802,1.035230431,2.337080433,1
-0.381029999,-0.497454204,2.564008266,1
-1.498808617,-1.670257061,4.060178515,1
-0.856502329,-0.767926381,0.247840105,1
-0.373213816,-0.343373525,-1.285029797,1
-0.385087851,0.109082625,-2.817274993,1
-0.783747511,0.222105902,-2.130908641,1
-1.163048825,0.061769353,-0.412597479,1
-0.7235539,0.16599045,0.191625686,1
-0.589008041,0.766432882,0.422423512,1
0.802385731,1.481520859,-0.023466516,1
-0.124028696,0.329368955,1.519762187,1
1.02882978,-0.533523548,1.966533284,1
1.634996183,-2.014963855,2.394344399,1
0.148934169,-2.045363601,-0.284108523,1
0.6032322,-0.843512958,-2.984852064,1
0.850159274,-0.01940911,-1.522944498,1
0.134090339,0.451904464,-2.124404785,1
0.19064598,1.020536264,-1.673740079,1
0.627368075,1.279208229,0.218966913,1
-0.440365386,1.140978547,-0.507430038,1
-1.070485491,1.181121561,0.510178121,1
-1.000817034,1.085552319,1.715418603,1
-0.450050374,0.210801204,2.357673151,1
-1.271576077,-1.538710289,4.455048279,1
-2.393387049,-1.727706961,0.884557592,1
-1.109807624,-1.194838329,-1.400715247,1
-0.689603996,-0.442784536,-2.567124983,1
-0.523011504,0.19278757,-3.548894654,1
-0.492040107,0.288901116,-2.231113381,1
-0.033028178,0.090757474,-0.432236741,1
-0.396724106,-0.179510113,0.266023979,1
-0.314175365,-0.130633944,1.148371604,1
-0.137874245,-0.037817289,1.592585709,1
1.613848672,-0.154918372,2.879742542,1
1.858595843,-1.402401595,2.157618443,1
0.651171106,-1.51933291,0.486636264,1
1.078571259,-0.520400508,-0.140730835,1
0.772037314,0.423210737,-2.705983818,1
0.018413769,0.72341043,-2.054171623,1
-0.133373221,0.7756617,-0.542337745,1
-0.231034474,0.976041407,-1.046780102,1
-0.546048753,1.054903701,-0.405835669,1
-0.361909811,1.227159835,-0.015779085,1
-0.28419727,0.967261936,2.337848059,1
0.253836618,0.47117953,2.150915998,1
-1.109178428,-2.007208429,4.094390732,1
-2.232219141,-2.070410855,1.259450487,1
-0.474680975,-0.818348028,-1.658963889,1
-0.459657814,-0.411805127,-2.826508987,1
-0.73151733,-0.246933498,-3.48768786,1
-0.668950484,-0.086423366,-1.416126232,1
0.148975713,0.215167137,-0.460332493,1
0.124369415,0.655788619,-0.000416332,1
0.048005237,0.710733235,0.314615436,1
0.675945571,0.179821243,1.55389708,1
0.791409653,-0.703345088,2.739694099,1
0.952309942,-1.494806177,3.037364359,1
1.442836632,-1.778778074,1.592421795,1
0.971115839,-0.703553591,-0.974782734,1
0.956574622,0.275532356,-2.636695539,1
0.541290116,0.525590812,-3.334587431,1
0.092299958,0.764905791,-2.61075505,1
-0.289994284,0.571826205,-0.270675157,1
-0.419190428,0.996988662,0.555978719,1
-0.566214046,1.790312669,0.282513699,1
-1.026682831,1.207784218,2.799203529,1
-0.038163537,0.690960485,2.330282468,1
-0.644373881,-1.947859654,3.12213996,1
-3.533212914,-2.579467002,2.653345479,1
-1.279642009,-1.025976966,-0.936378655,1
-0.60599976,-0.140848341,-1.277670857,1
-1.326287119,0.058208775,-3.591926728,1
-1.419902155,0.318308188,-2.072379063,1
-0.387745811,0.1358678,-0.195156599,1
-0.378676749,-0.062190447,-0.367901048,1
0.207260641,0.069049537,0.710082977,1
0.703733989,-0.46262621,1.348536384,1
-0.22644212,-0.902893675,1.855018283,1
1.380158105,-0.933957792,1.561399112,1
0.742921815,-1.542882971,1.301891926,1
0.305614505,-1.263723668,-0.196734952,1
0.88250458,-0.531260006,-0.984507341,1
0.102488567,-0.055229879,-3.294247694,1
-0.101631356,0.606289167,-2.727388924,1
0.117021317,1.195258805,-1.028136058,1
-0.277785141,0.946728137,-1.34660567,1
-1.231178114,0.834569382,-0.161318941,1
-0.781489347,0.985671428,1.334930463,1
0.242635484,0.893781081,2.242408696,1
0.21353051,-0.067123113,2.562957167,1
-1.373446688,-1.430950984,2.902402565,1
-1.898495779,-1.101745297,-0.401068125,1
-0.621281943,-0.607426772,-1.005168202,1
-0.092953672,-0.050217113,-2.159504229,1
-0.513803537,0.189537437,-2.721596622,1
-0.376837284,0.119300814,-1.671191296,1
-0.418370475,0.31480436,-1.260828777,1
-0.600159656,-0.032421851,0.622246143,1
0.559342846,0.535314144,0.952469785,1
1.001534792,-0.109432058,1.791846653,1
0.105966995,-1.108154902,3.193533227,1
1.510778878,-1.080725655,1.487006106,1
1.86368971,-1.508535035,1.066089633,1
1.105914063,-1.19696725,-0.143735409,1
1.071862594,-0.324310578,-1.761976327,1
1.115654539,0.475326386,-3.346928647,1
0.735552429,0.67409507,-1.908035993,1
0.027706004,0.427844135,-0.314266428,1
0.15653403,0.978211498,-0.149673561,1
-0.22637329,1.387284898,0.643615006,1
-0.296213138,1.487939898,1.362032235,1
-0.336746904,0.924917538,2.056560901,1
-0.154285793,0.062532674,1.539713506,1
-1.57598295,-1.447041589,2.027969977,1
-2.019855434,-0.918885038,-0.586321325,1
-1.18183324,-0.513689844,-0.667775728,1
-0.942794619,-0.657207052,-0.240482086,1
-1.230842902,-0.243776894,-2.196817542,1
-0.583202072,0.379058531,-2.501575441,1
0.164664385,0.376039578,-0.915142114,1
0.071830473,-0.337355856,-0.614936715,1
0.2044033,-0.539274573,0.373595664,1
0.984403897,-0.191073543,-0.414720256,1
0.15461428,-0.686377864,1.429130031,1
1.531485283,-0.422870608,2.220926902,1
1.152098832,-0.739297407,3.20826303,1
1.001600302,-0.464098114,-0.025311675,1
1.582519224,0.154563835,-1.599775419,1
0.299266274,0.058287979,-0.384501932,1
-0.62092285,0.124789924,-1.464510153,1
-0.724307811,0.580273005,-1.564375355,1
-0.180533164,0.714164194,-0.992978045,1
-0.166440305,0.820903646,-0.972880589,1
-0.740544353,1.160726266,-0.906204389,1
-0.324832049,0.968029701,1.054082997,1
-0.987873716,0.291787576,1.529593631,1
-0.892180533,-0.611433151,1.525737758,1
-1.818882711,-2.158498464,3.9867386,1
-1.068621798,-1.125132496,-0.645740092,1
0.838101212,-0.161296516,-0.426052777,1
0.379691343,0.308378004,-1.159053031,1
-0.412072174,0.582452815,-2.250839107,1
-0.315980833,0.460148982,-0.345288056,1
-0.768054897,0.474181757,-0.823246709,1
-0.880226949,0.519740705,-0.508486648,1
0.115836247,0.568157507,0.227318166,1
0.768845224,0.239109883,0.218206659,1
0.158997062,-0.737742079,2.292871854,1
1.210120682,-0.315472399,0.852270822,1
1.508354087,-1.235060956,2.225369936,1
0.031816075,-1.936588045,1.329339728,1
0.743412965,-0.836318098,-1.009660749,1
0.395953228,-0.122920279,-1.4596524,1
-0.054716468,0.55061541,-2.64308997,1
-0.333487172,1.237013594,-2.234958362,1
-0.463019029,1.263652765,-0.577204096,1
-0.587736691,1.283032054,-0.665110689,1
-0.485978613,1.289457494,-0.525498485,1
-0.627218456,1.152425789,0.458770942,1
-0.631655967,0.487111244,1.855885936,1
-0.269714564,-0.359470489,2.469340957,1
-1.314392248,-1.640736335,2.996777231,1
-2.057245421,-1.449473463,0.415909505,1
-1.335861937,-1.008423324,-0.71165901,1
-0.921994385,-0.599161948,-1.681558385,1
-1.23500159,-0.049078591,-2.418920867,1
-1.277072749,-0.162646891,-0.28264947,1
-0.578721377,0.18298395,0.193844618,1
-0.15915819,0.513042191,-0.224544374,1
0.3829478,0.724757218,-0.205908142,1
0.970653534,0.34574232,-0.855709967,1
0.597874928,-0.440727457,1.341221894,1
1.173361333,-0.721884054,0.960516306,1
1.870535653,-1.334393514,2.739911815,1
0.995323535,-1.570781949,1.071686836,1
0.76365601,-0.37670153,-1.298982967,1
0.922059236,0.073769753,-0.633432151,1
-0.07365429,0.28728428,-2.282533146,1
-0.229630777,0.621805301,-1.649043798,1
0.003124075,0.847434926,-0.923191169,1
0.005399809,1.114107496,-1.161556208,1
-0.096049262,1.362487606,-0.17774778,1
-0.312287975,1.077057131,1.255836525,1
-0.531940395,0.405668287,3.004453498,1
-0.715553105,0.046547057,1.276283969,1
-1.982246693,-1.395785035,2.686102548,1
-1.788138272,-1.05477506,0.742237824,1
-0.09772243,-0.636053648,0.250497603,1
-0.966444098,-0.683811844,-1.055996679,1
-0.946799569,-0.252874489,-2.936206143,1
-0.267650187,0.046209284,-2.376244394,1
0.138538498,0.050763697,-1.052585966,1
0.657546978,0.118197432,0.085623501,1
0.327698586,0.213890325,0.912735412,1
0.517840479,0.020698633,-0.002570994,1
0.562093075,-0.556056337,1.901994904,1
1.299496956,-0.871589311,1.636308616,1
1.101488002,-1.515402679,2.531291066,1
0.862962481,-1.123950777,-0.018738383,1
1.762965577,-0.211522773,-0.955952638,1
0.744647392,-0.168746954,-1.240319074,1
0.65535609,0.283717473,-2.157588681,1
0.30619599,0.503160537,-2.051860017,1
-0.085105787,0.738583046,-1.984038173,1
0.026205986,0.893290972,-0.557068762,1
-0.319239307,1.019209451,0.267425709,1
0.804753294,0.370499872,2.507546536,1
1.47841928,-0.52316914,2.603857136,1
1.677467903,-2.834496287,5.132230969,1
0.357067795,-3.48277737,3.25421103,1
1.994991975,-2.011167134,-1.211565701,1
2.134611321,-2.353586968,1.446928494,1
2.051716744,-2.149255273,-0.916961361,1
2.94894466,-2.645231915,-0.517463241,1
1.829359623,-3.908125615,1.114205157,1
-0.098777993,-3.991342057,0.708528547,1
-0.797307859,-3.08385711,1.342954248,1
-1.493782767,-2.638280295,0.103519477,1
-2.030048081,-2.561075063,0.056857426,1
-1.502370317,-2.498700558,1.329410169,1
-0.662441928,-2.740371969,0.955129683,1
-1.02249306,-2.574955827,0.63308898,1
-0.758851492,-1.385447323,-0.387351833,1
-1.253461007,-0.852286845,-0.54343182,1
-1.338373072,-0.556710894,0.721469572,1
-0.994893089,-0.526636611,1.619483086,1
-0.769528278,-0.32074857,-0.46652004,1
-0.82367236,-0.513810449,-0.043370041,1
-0.803361669,-0.798085073,0.145598359,1
-1.117216468,-1.04051527,0.001801846,1
-1.183801482,-0.933748052,0.486150419,1
-1.033267359,-0.298760881,-0.525429135,1
-0.693285128,0.036002628,-0.47451554,1
-0.82768616,-0.185437439,-0.537253,1
-1.351406671,-0.604235918,0.049861625,1
-1.142273255,-0.581480703,0.643138572,1
-0.705566248,-0.108309639,-0.154562315,1
-0.742757563,0.408523656,-1.102391966,1
-0.684459246,0.050882852,-0.042729869,1
-2.350526475,-0.684282045,0.603539366,1
-3.501925013,-0.618254746,-0.115184381,1
-3.635779113,0.298088832,-0.535561366,1
-3.402828176,0.880772735,-1.021959265,1
-3.353838509,0.467818378,-0.032313968,1
-3.330872235,0.306156724,0.554153965,1
-2.957345541,0.463607971,0.198018288,1
-2.577729276,0.675970451,-0.414162369,1
-1.969432273,0.909778969,-0.811180696,1
-1.417561221,0.850443838,-0.356173869,1
-1.223311019,0.338888713,0.489713449,1
-0.886864939,0.336695739,0.897191504,1
-0.588736122,0.231503567,1.394059736,1
-0.676210944,-0.166343082,1.538554648,1
-0.646508184,-0.401211867,0.592778983,1
-0.205374816,-0.94308146,0.879747725,1
-0.584943239,-1.339277495,0.825643876,1
-0.631220201,-0.936860086,-1.688581445,1
0.600736319,-0.584211889,-0.702518717,1
-0.22007904,-0.686532887,-0.609847135,1
-0.357860649,-0.355105979,-0.714291992,1
0.184082087,0.436583067,-1.501358743,1
0.194243483,0.916216781,-2.113994613,1
0.132337477,0.8192643,-0.195862131,1
-0.20805528,0.808919612,0.222468702,1
-0.671309064,0.491032837,0.827717283,1
-0.31829184,0.244051055,1.607221739,1
-0.382935343,0.37820452,1.364959363,1
-0.415601321,-0.626462467,2.442370999,1
-1.276387914,-2.010023358,2.486489088,1
-1.731437414,-1.425431225,-1.716161642,1
-0.608103416,-0.609757996,-0.993637483,1
-0.092415996,-0.599270325,0.934858129,1
-1.452153789,-0.855445109,0.113931538,1
-0.796495721,-0.41451134,-0.666847579,1
-0.491897899,-0.141623976,-1.466267936,1
-0.538673576,0.187390254,-1.870784172,1
-0.505149814,0.09432335,-0.191228568,1
-0.272961634,0.051101047,0.09807223,1
0.056017799,-0.354787689,1.049351561,1
0.195226279,-0.733435773,3.344262425,1
0.967741237,-0.74815396,2.460870635,1
0.659018551,-1.755152356,1.954956965,1
0.202235532,-1.410789476,-0.912250626,1
0.82849393,-0.272698996,-2.149901186,1
0.381311146,-0.285793982,-1.27943432,1
-0.302596838,-0.034334925,-2.17240945,1
-0.276015916,0.120554741,-1.01551671,1
-0.441358925,0.13747644,-0.342725861,1
-0.138906532,0.463209553,-0.444935435,1
-0.50507075,0.951917869,-0.387191518,1
-0.349241742,0.755042565,0.922842619,1
-0.382884892,0.482593356,1.744608037,1
-1.061441516,-0.802052475,2.347483864,1
-1.567263887,-1.39043862,2.222059736,1
-1.438727686,-0.801409006,-0.35295723,1
-1.096140384,-1.069224123,0.261735528,1
-1.744042471,-1.374580842,-0.319014776,1
-1.529937419,-0.728622253,-2.59573981,1
-0.853221571,-0.203094426,-1.638888181,1
-0.890965933,-0.183921096,-0.467829193,1
-0.4886426,0.219781451,-0.298603013,1
-0.142763766,0.335126961,0.619074986,1
0.06829257,0.420716024,0.284430944,1
0.536300069,-0.130067304,1.7046893,1
0.921203047,-0.436063799,2.954881559,1
1.421816657,-1.129318169,2.963561672,1
0.855696146,-2.001030076,1.591325156,1
0.714968987,-1.35891727,-1.574919484,1
1.538838382,-0.366278196,-3.153522958,1
0.571912801,-0.523912959,-2.936249167,1
-0.467010164,-0.55000442,-1.826214255,1
-0.836173337,-0.097430252,-0.989435688,1
-0.645601509,0.459986414,-0.386928247,1
-0.753093956,0.805377552,0.232215922,1
-1.00830328,1.175293814,0.60510417,1
-0.431142519,1.042554934,1.990734046,1
-0.845621068,0.568261927,2.439873513,1
-1.57519805,-1.440959018,6.106174887,1
-2.951270495,-2.317586826,3.433165627,1
-1.316650281,-1.195502727,-1.075342626,1
-0.148270166,-0.665927103,-1.567234789,1
-0.942028893,-0.745514786,-2.732537862,1
-1.178358479,-0.716938825,-1.878317451,1
-0.699258227,-0.702388182,-0.648672866,1
-0.31429169,-0.403677917,-1.617532654,1
-0.397867214,-0.520953037,-0.609171082,1
-0.526867236,-0.330137561,-1.914733919,1
0.683018734,-0.198066413,-0.838221096,1
1.371111602,-0.968199783,4.073450429,1
1.64142283,-1.650523864,3.848553755,1
0.980588652,-1.888110557,1.608097856,1
0.778701857,-0.55687412,-1.93245339,1
1.405962867,-0.038334744,-0.263260642,1
0.715269904,0.232764043,-1.04081175,1
0.122361391,0.759164016,-1.943728064,1
0.207763457,0.933143512,-1.314829525,1
-0.229141717,1.393093665,-2.041975471,1
-0.845640452,-2.681858954,-0.180719173,1
0.740986638,0.878278468,2.362182584,1
-0.878981502,0.272605706,1.066910708,1
1.100231776,-1.420157453,2.760634981,1
-1.605680872,0.74175481,0.673065986,1
-2.730321644,-0.717463274,-0.461942762,1
-1.855025803,-0.592593346,1.442730997,1
-0.375558744,-1.148116888,1.602066282,1
-0.569980785,0.002395583,-1.78316743,1
-1.060734392,0.389354873,-1.046863338,1
-0.538884163,0.160008873,-0.721975933,1
0.074394905,0.26968525,-0.445632834,1
-0.22058454,-0.037927685,-0.307508018,1
0.390515416,0.178919561,1.255074021,1
-0.259050849,-0.293926893,-3.618504626,1
0.929622891,1.074205499,4.082675579,1
0.011670526,0.034996227,0.352557035,2
0.001797745,0.688853211,0.776967487,2
1.20519421,0.42013739,-1.180131559,2
2.156341921,-0.266313883,-0.482228139,2
1.002652818,0.342042719,0.344361627,2
1.45373534,-0.838096501,-0.355317828,2
0.633164952,-1.749996098,0.948604147,2
-2.025698532,0.196498067,-1.668636462,2
-1.431517726,0.062876209,0.896265588,2
-1.820316028,0.829186565,-0.059141033,2
-1.544726726,1.396321283,-1.227174066,2
-1.060666858,1.103260222,0.386755242,2
-1.079594507,1.06879937,-0.757943772,2
-0.840993665,0.872927963,-0.42734403,2
-0.957537199,1.118473888,-0.900263901,2
-0.87921716,1.173552063,0.592696617,2
-0.178688906,1.323916008,1.19139134,2
-0.746244583,0.740161198,2.027140539,2
0.375261738,-0.002070084,3.271678499,2
0.162111272,-0.872721824,1.034159462,2
0.507972679,-1.199375589,1.336406036,2
0.502880742,-0.630237258,-0.554072237,2
0.735394947,-0.357260017,-2.069020269,2
0.671021121,-1.372404181,-0.211868197,2
-0.559769863,-0.966933825,-2.09647213,2
-1.088116399,-0.344548792,-3.007958985,2
-0.052189488,0.715884997,-2.902658902,2
-0.684120967,1.332718226,0.809328779,2
-1.511975752,1.253425407,3.693856708,2
-1.04757052,0.025743769,6.478396095,2
-0.766611132,-0.981024495,1.485211263,2
-1.298207055,-1.143890838,-0.401766989,2
0.38728106,-0.775254363,-0.919599182,2
-0.729688953,-1.717967835,-1.943724581,2
-0.655068385,-1.904089323,-1.077951687,2
-0.410620744,-1.498817436,-1.166032483,2
-0.472384325,-1.165703529,-0.191620099,2
0.307271131,0.005154209,-1.488317885,2
0.733164084,0.194388758,1.866875434,2
0.162165793,-0.688577504,4.683305901,2
0.639427096,-0.115137937,0.690816181,2
0.452883637,-1.104016626,1.429856614,2
0.504529575,0.016841789,-1.392304777,2
1.12663228,-0.291895449,-0.154405983,2
0.430722994,-0.336387778,-2.34837768,2
-0.467243212,-0.122969536,-3.613000917,2
0.481128407,-0.156664391,-3.158528542,2
0.286092664,0.370321105,-1.660758895,2
0.059418626,0.917985074,1.094848088,2
-0.304371417,1.148170789,4.032073325,2
-1.219847383,0.912631541,5.742651811,2
0.041185133,-0.606174883,3.261392925,2
-1.614159877,-1.192841416,-0.582494074,2
-0.350787591,-0.677889644,-1.71629416,2
0.176897201,-0.623970402,-3.309976241,2
-1.205168403,-1.838074815,-3.850680391,2
-0.836862211,-1.599470147,-2.179082354,2
0.48673656,0.295196968,-0.786641003,2
0.220074598,-0.526634191,4.005192749,2
0.163115134,0.806069249,4.897132166,2
1.01786098,1.848189606,2.836474751,2
1.698399694,-0.271092101,3.078932242,2
0.852828784,0.536885105,-2.41817841,2
1.213552954,-0.217187113,-2.076049005,2
0.016460421,-1.046352907,-2.31689641,2
-0.488777111,-0.597754294,-3.521008462,2
0.608532386,0.543105678,-1.889342585,2
0.634648515,0.380115734,0.44540692,2
0.305619249,0.166629265,1.649696721,2
-0.51415573,-0.025865543,2.264380118,2
-0.13222195,-0.911696222,1.570091024,2
-1.031144815,-0.581260776,-0.175660941,2
-0.868464718,-0.677398668,0.187097502,2
-1.032706237,-0.733107005,-2.012238388,2
-1.130150858,-0.664513272,-2.449978741,2
-0.505576636,-0.126736917,-2.225210606,2
-0.302596442,0.772737491,0.646886809,2
0.094403402,0.24126553,3.419360371,2
-0.140988016,-0.724274995,4.656768154,2
0.135939435,0.172116398,0.55456517,2
0.675939161,-0.78970965,1.087270599,2
0.754108224,0.978349761,-1.905164118,2
1.093058689,0.010438155,0.531111311,2
0.268104775,-0.189481962,-3.335882524,2
-0.103422695,0.643945445,-3.565436235,2
-0.081413254,0.914636409,-1.051350782,2
-0.473954561,0.470731133,1.163025534,2
-0.226052877,0.339825455,1.237739232,2
-1.013701358,0.515481243,1.298780973,2
0.400108563,-0.180894617,2.563175552,2
-1.678355553,-0.975169503,0.505419708,2
-0.718401191,-0.34761003,-1.231064493,2
-0.506703461,-0.350082122,-1.238795533,2
-1.131591153,-0.536678799,-2.351477907,2
-0.522400154,0.023482899,-1.656412027,2
0.286317515,0.158305364,0.254326932,2
0.375726464,0.283655612,1.893557696,2
-0.319158556,-0.16949919,4.596987052,2
0.855783341,-0.24768998,2.2601069,2
-0.15997251,-1.54892579,1.613404082,2
0.636238828,-0.589718303,-1.918847396,2
0.586066782,-0.845714785,-1.229251494,2
-0.487351259,-0.52087688,-3.160479655,2
-0.42803414,-0.098795023,-2.152981692,2
-0.067029366,0.548889892,-1.168587008,2
-0.593524186,0.665889854,0.276048624,2
-0.600042402,0.482690937,1.62311075,2
-0.752809908,0.808767075,0.923586166,2
-1.45404744,-0.954937095,3.22864998,2
-3.218653845,-0.259525524,-1.101502019,2
-2.940126873,0.327808086,-0.490287858,2
-2.591394053,-0.608951094,0.88852027,2
-2.340581399,-0.576456076,-1.994958622,2
-1.273762747,0.125811875,-1.457425777,2
-0.944268877,-0.08674762,-0.12694933,2
-0.728410367,0.322890265,1.023516493,2
-0.046730544,-0.178700959,5.040059196,2
0.379228078,0.509147713,2.322344509,2
1.174236319,-2.381557376,5.570479398,2
1.217680274,-3.315741234,-0.492847275,2
1.702742568,-2.654644561,-2.185096057,2
0.901069024,-2.629019373,-2.507405532,2
0.481835257,-2.341599954,-4.130312218,2
0.077935414,-1.323152219,-4.517658171,2
-0.516076659,0.189797903,-3.784499938,2
-1.996269617,0.921304548,0.402006785,2
-0.118884583,1.405469246,2.814126122,2
-1.506340314,0.726751236,1.818805262,2
-1.327828694,1.962311827,0.769500027,2
-0.824284234,-1.818750711,4.29913875,2
-1.964324348,-3.135370234,1.22692467,2
-0.905712115,-0.832828592,-3.250415007,2
-3.355278777,0.116683212,0.604619331,2
-6.944637354,-0.843725437,2.591106188,2
-4.758737568,-1.162002049,2.851227585,2
-0.725105958,-1.219892532,1.761776379,2
-0.157205728,-1.519398129,0.246822415,2
-0.465794269,-1.235196147,-0.213684488,2
-0.623838081,-1.117606438,1.529083971,2
-0.879690005,-1.297115952,2.194923821,2
0.102019811,-0.302944762,-0.697056387,2
-1.788586155,-2.961076334,1.574489851,2
-2.879237382,-2.571260205,-1.012674495,2
-0.020031881,-1.129214308,-0.807196578,2
-0.271566636,-1.080186364,0.690134385,2
-1.198315418,-0.90005703,1.151058377,2
-0.051083582,0.298736428,0.479810033,2
-0.434812151,0.199363542,2.729418599,2
-0.693120397,0.205220998,3.023251218,2
-1.558472137,0.760785999,1.355192058,2
-3.001406525,-1.177104693,4.760978322,2
-4.12117063,-3.07096132,4.995386377,2
-0.814962811,-2.977934983,1.687062428,2
-1.293148491,-2.918033539,-1.65905839,2
-0.880693579,-2.929368302,-2.073263883,2
-0.749602474,-3.119585155,-0.891542688,2
-0.062754583,-2.091893932,-0.51239852,2
0.109786126,-2.147044402,3.337695275,2
1.047746569,-0.855182931,3.618404649,2
1.743328011,-0.811021619,3.772185095,2
0.634936809,-0.974136258,-0.259587655,2
0.192392825,-0.20620332,-3.270612177,2
1.104007932,-0.085297538,-1.711780605,2
0.527842054,-1.179053875,0.26023286,2
0.546389223,-0.875446371,-2.240767392,2
0.796288752,-0.278630443,-2.318031402,2
0.347347858,-0.204629368,-0.685655002,2
-0.7397689,0.227582268,0.611272231,2
-1.466869435,0.517838532,3.177287325,2
-1.329118699,1.571419784,0.802611975,2
-0.538859443,0.88728491,1.766923286,2
-1.946065098,-0.083534473,0.691797534,2
-1.790714312,-0.974425791,0.843575356,2
-1.29264001,-1.75333066,-0.984327045,2
-1.153702018,-1.079966707,-3.431350112,2
-0.996305249,-0.72472148,-2.147603376,2
-0.487858865,-0.445326586,1.364903791,2
0.80285444,0.267737552,4.935598638,2
0.631795238,-1.048641786,5.754121305,2
0.712260588,-0.184967837,1.165686895,2
0.412491793,-1.193884375,-0.62609931,2
0.670138261,-0.102110947,-2.922573843,2
0.761162017,-1.354726351,0.273291565,2
-0.385164327,-1.82418701,-2.301685798,2
-0.069235214,-0.614815871,-3.842905247,2
0.145439149,0.451169827,-2.169266392,2
-1.433400871,0.017061679,1.138721152,2
-0.880243424,0.790772505,1.478838744,2
-1.381702269,1.418026143,2.334342337,2
-0.244454648,-0.034021117,4.81456464,2
-0.84522984,-1.048154925,0.781385135,2
-0.121091487,-0.744228753,-2.512207183,2
-0.155190805,-1.413394764,-2.866183745,2
-0.617376524,-1.288477888,-3.670079461,2
-0.941581781,-0.176168626,-3.2268645,2
-1.477863766,0.60950245,-0.628650202,2
-1.768774231,1.254260466,1.451698688,2
0.47970327,1.529059713,6.78856882,2
0.217201996,-0.241015309,5.475340726,2
0.872716811,-0.381749253,4.68858356,2
0.692435475,-2.803584827,1.464946211,2
1.626208958,-1.210179225,-4.254593256,2
1.098141948,-1.71858474,-2.152001524,2
-0.673177567,-1.647570524,-3.366974292,2
-0.762268804,-0.634736399,-3.360638578,2
-0.190954485,0.891121109,-2.150517218,2
0.511462925,0.752562202,1.712318221,2
-0.580245414,0.497796885,2.237097591,2
-1.250735919,0.819394701,0.824353004,2
-0.835736393,1.594031477,-0.468694637,2
0.263465884,0.149235749,3.152794886,2
-3.232123802,-0.761630709,-0.411193876,2
-1.906454729,0.16969108,-0.295917493,2
-1.464337989,-1.320088051,0.825488117,2
-1.742798102,-2.011147122,-2.012417626,2
-0.487563616,-1.056581625,-2.95834151,2
0.478298933,0.403738902,-1.890279728,2
0.386547259,0.352212491,1.230889527,2
0.742442675,0.268378038,4.580245935,2
0.565338801,0.646004452,2.827348208,2
1.495992703,-0.689148915,5.102321967,2
0.958443271,-1.535916174,-1.410380511,2
2.422206895,-0.405395802,-2.944300553,2
1.188932982,-1.729524819,-1.453283104,2
0.190818626,-1.437738308,-3.544491097,2
0.931746382,-0.202770684,-3.843118054,2
0.917239964,0.307702037,-0.311831911,2
0.028935156,0.563692948,1.759873535,2
-1.034021883,0.505646463,3.641416917,2
-1.009324472,0.866956442,2.982747074,2
-0.705211397,0.769846621,1.81324274,2
-2.041332102,-1.035409988,0.988360453,2
-2.599362974,-0.525088798,-2.442528369,2
-1.705998608,-1.457030969,-1.754021793,2
-2.003178537,-1.929980158,-2.462118463,2
-2.276001229,-1.539015594,-1.252100971,2
-0.7304989,0.091641229,-0.337031178,2
0.659134366,0.783638057,2.672787271,2
1.621341571,1.124513076,2.017290536,2
0.796133263,0.915657532,1.848318218,2
1.272706234,1.058616199,2.910795636,2
1.873220124,-1.078295341,2.637908052,2
1.338183189,-0.316578929,-2.26371813,2
2.0632158,-0.509079866,-0.878227467,2
0.227549364,-1.665381854,-1.35715582,2
0.210560626,-1.091080278,-3.411427964,2
0.085937861,-0.32361573,-4.247449563,2
-0.625393308,0.166825467,-1.238719694,2
-0.613001172,0.432027299,2.408468027,2
-1.12772608,0.577874533,4.458553067,2
-0.510305143,0.922648905,2.759113109,2
-0.305972579,-0.281057659,1.912940682,2
-0.923280882,-1.096375691,1.365705011,2
-1.140569509,-0.620678121,-1.157235615,2
-1.717719544,-1.278414639,-0.301991608,2
-2.161523888,-1.640395254,-2.196980963,2
-2.258552318,-1.467898095,-2.567659286,2
-1.582424711,-0.253713502,-1.74802166,2
-1.181192049,1.27825716,-1.035588662,2
-1.73471296,1.194317811,1.034250478,2
-2.642669546,0.225512335,2.132476236,2
-1.972554231,0.325199409,0.108087205,2
-1.418012525,0.759128493,0.623740648,2
-0.937568851,0.937981305,1.343558759,2
-1.254386417,-2.78597803,4.854382241,2
-0.622186314,-4.301791564,-1.44868487,2
0.997028286,-2.243671675,-4.104543742,2
1.914783114,-0.980757777,-0.114133072,2
-0.319722208,-2.133106043,2.620739731,2
-0.144845259,-0.806580686,-0.621115924,2
0.796424205,0.467425728,-1.082870984,2
0.352156241,0.282418169,0.329974785,2
-0.231568381,-0.073332822,1.396515835,2
-0.392643902,-0.020889358,1.863681304,2
-1.742053594,-0.681676571,0.880247431,2
-2.393720089,0.073550948,-0.727218672,2
-1.394783616,-0.388688679,1.017906491,2
-2.522300907,-1.294559588,1.039797835,2
-2.618604202,-0.617879505,0.722192437,2
-2.630255692,-1.530367136,2.371590163,2
-2.519132073,-1.706024582,0.672468084,2
-1.396251384,-2.005843664,0.620779155,2
-0.272300394,-1.468890165,-1.263704772,2
0.235005192,-1.010719793,-0.408891946,2
0.392271058,-0.562022669,-0.558317625,2
0.262576156,-0.683191929,2.959100999,2
-0.539756322,-0.660377641,2.25362801,2
-0.027736203,-1.00937516,2.236659083,2
-0.837384077,-2.264295701,-0.039361303,2
-0.087572036,-0.915146062,-3.1805455,2
0.500245606,-0.644331405,0.902488433,2
-1.667758106,-1.751799823,1.832692649,2
-0.75669924,-0.452738005,-0.50364574,2
0.015082587,0.069438683,-1.560698549,2
0.123881104,0.52566775,-1.69165957,2
0.002765428,0.584531281,0.110585044,2
-0.863953335,0.191128507,2.018668237,2
-1.833408653,0.16394751,2.277402202,2
-1.618926327,-1.168514065,3.553227462,2
-2.805454732,-1.96708849,0.08380719,2
-1.959026702,-0.937299183,-0.455077555,2
-1.601101111,-1.414934792,1.130626627,2
-1.839801112,-0.756392289,-0.104530205,2
-1.590749351,-0.744189496,0.826826938,2
-1.252504698,-0.865670103,0.915453002,2
-0.454394701,-0.7032668,1.2887842,2
0.076348397,-0.806855619,1.984929638,2
0.717168635,-1.275806658,3.540866741,2
1.139004742,-0.44373496,3.863537237,2
1.493146108,-2.091360734,5.399668786,2
1.125315251,-1.570577067,-1.691251104,2
0.283451234,-2.159449845,-2.603392882,2
-0.531927772,-2.777950349,-3.103413563,2
-0.293085338,-1.921393264,-4.21820175,2
-0.284621551,-0.778264194,-3.125088622,2
-0.198014557,0.456098554,-1.317919578,2
-1.044728404,0.496880926,2.161972977,2
-1.888158828,-0.259281202,5.284002505,2
-0.185012569,1.604757782,1.046321687,2
-0.096466018,1.454279622,0.794060445,2
-2.556000055,-1.282629757,5.663355154,2
-3.616141717,-2.462558827,-0.896664619,2
-1.654255002,-1.758938417,-2.934991382,2
-1.42154762,-1.29927793,-1.92169871,2
-2.023657086,-1.399649457,-1.224016042,2
-2.006931961,-0.974557865,-0.818881753,2
-0.560670121,0.318063648,0.319901823,2
-0.788251271,0.670621833,0.815198952,2
-0.603189201,-0.518740462,4.701819424,2
0.715789591,-0.419067313,2.932153672,2
1.029494448,-2.851857498,3.902128522,2
1.385337476,-2.069016659,-2.229987146,2
2.249999761,-0.650470345,-2.663821899,2
0.773564643,-1.211770783,-0.480506084,2
0.155022052,-1.16704453,-1.255138443,2
0.452008554,-0.165196153,-3.36690246,2
0.538373066,0.198618826,-2.496092634,2
0.046381467,0.455713766,-0.800559234,2
-0.97890375,-0.086560038,3.110950652,2
-0.650366466,0.200567561,3.153919807,2
0.848927082,1.808180859,1.807903599,2
0.117048826,0.321459202,3.982182961,2
-2.083100347,-1.488677106,2.248185483,2
-2.323877268,-1.043518108,-2.191600751,2
-1.793819469,-0.432750112,-4.289168712,2
-1.998091763,-1.258763703,-1.106948641,2
-1.341504042,-0.779954393,-0.055110307,2
-1.147894674,0.034772315,-2.242081121,2
-0.016922019,0.467286316,-0.842747651,2
0.431282063,0.58649667,-1.113842695,2
0.088311197,0.01125496,2.911454281,2
0.096265634,-0.77654872,4.017334527,2
1.466976265,0.036768154,3.552818955,2
0.631496777,-2.367055042,4.778264719,2
1.495116615,-1.11503698,-2.613062742,2
1.950126124,-0.758912383,-2.785842479,2
0.599188178,-1.1135747,-3.27677858,2
0.895218436,-0.650739507,-3.299581488,2
0.386644795,-0.276942278,-2.003028062,2
-0.060267453,0.315898132,-0.174823994,2
-0.550393762,0.851131028,1.569600377,2
-0.600663246,0.961338147,3.473633028,2
-0.098085335,1.681444406,2.517892082,2
-0.046033338,-0.80050248,4.457119892,2
-1.431119611,-0.815187946,-0.796839084,2
-0.844491908,-0.662968938,-1.538715544,2
-1.318577757,-1.464804478,-2.221227318,2
-0.898888641,-1.415454761,-3.058968568,2
-0.756354847,-1.067699351,-2.542553686,2
-0.509520566,0.161255843,-1.242408134,2
0.008695637,0.386851767,1.081828502,2
-0.264866623,-0.188151417,3.334908376,2
-0.444328518,0.437167209,2.372611664,2
0.08497798,-0.224374884,4.78117978,2
0.118277508,-1.076124152,1.745008322,2
2.019962948,-0.000772608,-1.791193075,2
1.139934689,-1.075201428,-2.440415421,2
-0.084689131,-1.493582491,-3.921178091,2
0.733398694,-0.516981578,-4.148737107,2
0.126819091,-0.248675329,-1.96656877,2
0.124906374,0.177346684,1.40513697,2
0.353876714,0.789982189,3.198007952,2
-0.320066666,1.312027165,1.665897403,2
-0.13259786,2.464970188,-0.274404363,2
-1.441231575,-1.165574869,6.116513778,2
-3.333299755,-1.551988982,0.209059552,2
-0.389464423,-0.292174002,-2.279829086,2
0.768754554,-0.295497722,-2.625917116,2
-1.174859107,-1.64332912,-3.38026346,2
-2.181294149,-1.384729919,-2.749560346,2
-1.707602842,-0.192577917,-0.465264565,2
0.161355329,1.373839221,2.824547323,2
0.852444247,0.473317138,5.372416714,2
-0.434621355,0.377184143,6.065377579,2
-0.89128841,-1.559441638,4.05386208,2
-0.377270552,-0.903401601,-4.335100878,2
0.557895152,-1.372036881,-2.146033533,2
-0.249553373,-1.812152377,-2.516783858,2
-0.74035563,-0.960764683,-4.190563963,2
0.186977716,-0.510813577,-2.450355342,2
-0.199428698,-0.498502452,-1.545252241,2
0.947531134,0.598846282,-0.417281745,2
1.228629594,0.924030594,0.917440353,2
0.848323042,0.961481365,1.585051931,2
-0.387800545,1.396669406,1.5029026,2
-0.200397514,0.975978685,4.725827965,2
-1.299105645,-0.364535678,3.657141912,2
-3.276781144,-0.416997779,-2.183914557,2
-3.237361742,0.682320317,-1.726599715,2
-1.67985007,0.242191286,0.823715586,2
-1.55187399,-0.622107448,-0.533590624,2
-1.485241353,-1.447262335,-2.235884909,2
-1.469326453,-1.342936943,-2.291956056,2
-1.334725123,0.261924071,-0.885574656,2
1.163810188,2.683883585,2.647460195,2
0.754662292,0.387577071,6.166725508,2
-0.275233923,0.114727907,2.775294249,2
-0.615759393,-2.240259029,1.934869191,2
1.232460363,-2.187535761,-2.250120218,2
2.085277401,-2.268188342,-1.103592515,2
0.687713637,-3.087119739,-1.966776185,2
0.195988703,-2.059720992,-3.503476936,2
0.585675435,-0.527042074,-3.561213632,2
0.395831224,0.415254398,-2.211983444,2
0.737783153,0.443794187,1.640223889,2
1.026317392,0.426229216,1.820943176,2
0.73486468,-0.070628348,0.125117747,2
0.355357752,0.78491174,-1.721958908,2
0.123485242,1.50769177,-0.878520321,2
-0.984975716,0.872274586,2.199928401,2
-1.482908089,-1.984680725,4.912598425,2
-2.583758798,-2.593153527,-1.395753961,2
-2.221247925,0.281104406,-3.581085613,2
-2.163364132,-0.412383874,1.800234196,2
-2.697323548,-0.712171708,1.94516123,2
-2.16063891,-0.448320201,0.948702392,2
-1.844983146,-0.880511909,0.243504367,2
-1.046035267,-0.214223065,-0.85246672,2
-0.57025073,0.556596727,-0.097438688,2
0.003806741,0.785097814,0.775146879,2
-0.242044899,0.221682562,1.351623471,2
-0.427918549,0.155724551,0.133543542,2
-0.117139097,0.153472691,0.636721481,2
-0.106972431,-0.298298706,1.448985171,2
-1.019372099,-2.513555882,3.087657483,2
-0.514487378,-3.316757772,0.443986757,2
0.435435004,-2.333655413,-0.865584061,2
0.048526112,-2.138511827,1.145268271,2
-1.420074212,-1.812864871,0.843865495,2
-1.258908602,-0.794814157,-0.531652338,2
-0.461257111,-0.27953925,-0.259865572,2
0.709273018,0.317467987,0.097198829,2
1.194762639,0.370583627,0.811653246,2
0.826139068,-0.04394429,0.358669643,2
0.05457005,-0.088697831,-0.306273327,2
-1.689525591,0.183312231,-0.370912774,2
-1.993067177,-0.576962564,1.809252552,2
-3.128960107,-1.282685472,2.133048964,2
-1.419588601,-0.593353714,1.603350069,2
-1.13061413,-1.240982996,2.288798734,2
-1.061168107,-1.108778512,0.169196544,2
-1.21413794,-1.473725098,-0.641425976,2
-0.85561792,-1.133621148,-1.339331067,2
-0.659244596,-1.112366967,-0.145101927,2
-0.479805884,-0.813411655,-0.324212701,2
0.14569925,-0.647138378,1.016775659,2
0.372776,-0.536095919,2.564851257,2
0.60810695,-0.121679098,1.851206904,2
-0.903218195,-2.231370092,3.251100404,2
-1.501544709,-2.525786739,-0.930052644,2
-0.094459442,-0.248183435,-3.3127225,2
-0.430804284,-0.72950874,1.042252637,2
-2.427460789,-1.514883864,1.691655372,2
-0.969516288,-0.494762802,0.090644289,2
-0.176618389,-0.402195701,-0.790581809,2
0.214313857,-0.040259652,-0.289056443,2
-0.107837605,-0.201227676,0.966570466,2
-0.890844113,-0.639755313,1.777583745,2
-0.830914863,-0.229074117,0.903961424,2
-1.290466721,-1.826852674,2.393094159,2
-2.145940004,-1.999046839,-0.102232792,2
-1.15194022,-0.570025852,0.035860634,2
-1.29884479,-0.907154799,1.781964293,2
-1.903554082,-0.636872203,0.408136065,2
-1.583226758,-0.194431275,0.81778772,2
-0.95595376,0.423114234,0.877911089,2
-0.193694965,0.13356076,2.061138101,2
-0.466354145,-0.749678529,1.955249815,2
-0.278120396,-1.298053921,1.739671069,2
0.06837458,-0.549868569,1.407397939,2
0.118200315,-2.345125603,4.535386081,2
0.645072747,-1.365462246,-1.808148703,2
0.909520117,-1.103328361,-1.326910191,2
-0.059720316,-1.365572186,-2.05593949,2
-0.023226668,-0.740412858,-1.717813739,2
0.025252716,-0.24152369,-2.608291215,2
-0.419276222,0.666199297,-2.08067993,2
-0.319268528,1.153958372,1.032433916,2
0.503081706,0.951917206,3.424928877,2
-0.485058606,0.029706308,3.848836552,2
-1.172779584,0.684808941,0.802149816,2
-0.068730064,-1.520605418,3.158039014,2
-3.049813905,-1.250817738,-1.061140479,2
-0.853566076,-0.183775568,-0.885063236,2
-0.986916135,-1.434598751,-0.213924942,2
-1.679167363,-1.258278223,-2.59408524,2
-0.955353167,-0.643302004,-1.550527707,2
-0.714418941,-0.536017431,0.251265193,2
-0.289850473,-0.67537764,0.372464473,2
-0.176611124,-0.550724393,0.883409278,2
-0.982019883,-0.823594283,1.576032163,2
0.469782482,0.052032708,-0.633539657,2
1.166801219,-1.56409101,0.299587346,2
2.115611937,-3.583922338,-0.901751325,2
0.965494971,-0.193700729,-1.976056921,2
0.852396112,0.63268497,1.989372273,2
-0.774517556,1.384992878,-0.682959825,2
1.222188617,0.718274172,0.026732223,2
-0.735901358,0.408452193,0.822469906,2
0.817754268,0.333054117,0.252439706,2
-0.910598048,0.804200517,0.558250786,2
-0.696183759,1.444571973,-2.914830218,2
-0.835228146,1.493592556,1.457241607,2
-0.443260229,0.94602841,0.070612817,3
-0.487091377,1.094300713,0.687117625,3
-1.156396049,0.981333362,1.112990371,3
-0.946362434,1.142058428,0.648216203,3
-0.162746868,1.099835372,1.897849076,3
-0.232998118,0.044274966,1.305958266,3
-0.59440844,-0.95217785,-0.247863948,3
-0.841672503,-0.160272932,0.476998773,3
-1.432090488,0.81159381,2.51460246,3
1.177961601,-0.76151663,1.171044044,3
2.350367844,-1.281364729,0.73755193,3
1.58868467,-2.823653534,1.083438919,3
0.58352608,-2.890331694,-2.148118108,3
-1.973680345,0.018460145,-1.833211398,3
0.203726042,-0.101208112,-2.874314511,3
0.274239508,0.876553611,-1.954362439,3
0.727418538,0.746569854,0.602567524,3
0.196182538,0.767332125,1.343861052,3
0.251067604,0.488544113,0.979348188,3
0.60169895,0.76256128,-0.097436274,3
0.537158115,0.256486162,1.680946182,3
0.275340764,0.075381221,1.691530702,3
1.357057927,-0.426028116,0.814285164,3
1.068191901,-1.473735938,2.294092984,3
0.080479709,-1.921418843,1.457146762,3
0.539757954,-0.870451206,-1.633289915,3
2.205967851,-0.181778313,-1.831742467,3
1.98381889,-0.386342573,-0.494173302,3
0.489975034,-0.255341526,-1.403832258,3
0.796219611,0.101486162,-0.963467246,3
0.484788061,0.470364812,-1.149426014,3
-0.000678884,0.336358188,-0.159307737,3
-0.343806296,0.840351989,-0.074619465,3
-0.513570951,0.544160553,0.925533639,3
0.29148031,0.371767102,2.011666741,3
1.546246756,-0.170109382,2.034683652,3
0.880513896,-1.503022913,2.729071694,3
-0.621424095,-1.689180744,0.5029727,3
-0.453942919,-0.196286977,-2.599650913,3
0.905569669,-0.132778684,-1.442435326,3
0.012892525,-1.450737724,0.837763992,3
-1.237812823,-1.362107574,0.420373069,3
-0.830401356,-0.463917053,-1.162416142,3
-1.138070585,0.186428865,-0.900629976,3
0.08334014,-0.506251954,0.835613325,3
-0.896218693,-0.768794028,-0.336244723,3
-1.613345668,-0.734233511,-2.17402271,3
-0.866103212,-0.17248982,-2.802540961,3
-0.528319396,0.146176711,-1.704977926,3
-0.248218603,0.27626942,-0.362785324,3
-0.643457434,1.258313773,-1.334710419,3
0.453918994,1.258447121,0.137004557,3
0.669626988,0.420928956,3.731851014,3
-0.361002807,0.533136164,0.781818207,3
-0.73985393,0.889649146,1.081625691,3
0.971152584,1.269422738,3.058783557,3
2.210921238,0.91461071,1.955761449,3
1.427497576,0.275552112,-1.295986275,3
-0.0486011,-0.118563771,-2.810080399,3
0.510571166,-0.336123244,-2.650515146,3
0.395972637,-0.336664411,-2.240497103,3
0.300986846,-0.685790446,-1.498119091,3
-0.33860222,-0.688635481,0.614457419,3
0.553403903,0.161401094,-0.330826747,3
2.169463247,1.179873219,0.338185935,3
1.581165037,0.753827933,1.765553622,3
-0.000944384,-0.595014317,3.657909835,3
-0.996550331,-1.464964258,4.731935022,3
-1.208679794,-0.945981968,2.124503365,3
-0.15150532,-0.284555947,-1.204033656,3
0.375384358,0.085388284,-3.252475801,3
-0.216170071,0.080935212,-3.84596289,3
-0.790701463,-0.038666083,-3.160585526,3
-1.105344507,-0.159570743,-1.899218846,3
-0.801749067,-0.022403035,-0.727938122,3
-0.384919116,0.426561774,0.396604149,3
-0.352017232,1.025644156,0.584372807,3
0.551325683,1.132134076,1.536792801,3
0.392755101,0.847356869,2.234100697,3
-1.389238889,-0.038956349,4.354108176,3
-1.742872508,0.507780048,3.898981752,3
0.322985739,1.483905488,2.38046115,3
1.436191452,1.702092924,0.847289558,3
1.001940542,1.390319741,-1.532690765,3
0.058889386,0.351424861,-2.107210815,3
0.327459539,-0.202678672,-1.906345364,3
0.368599855,-0.321019418,-2.267681866,3
-0.17819195,-0.940636432,-1.924909828,3
0.046253694,-1.156214455,-2.37867424,3
0.476277187,-1.195917856,-1.687020095,3
-0.39022019,-0.676256584,-1.043087686,3
-0.612803546,0.160213815,-2.32247287,3
0.982231628,0.183353981,1.667585128,3
0.83780083,-1.212064415,7.570413102,3
-0.974633442,-0.679088672,4.853203247,3
-0.580063422,0.080716897,3.237637245,3
-0.950603444,0.725075291,1.102323062,3
-1.581631875,1.18973215,-2.064613277,3
-2.023957108,1.407863228,-3.17274497,3
-1.668573344,0.4583894,-1.552577343,3
-1.667151015,-0.795601648,0.371640999,3
-1.420541701,-1.173995644,-1.681113719,3
-0.913488243,-0.869887491,-3.412286639,3
-0.648512643,-0.489340136,-1.960191527,3
-0.009287,0.19788397,-0.359815528,3
-0.116391577,0.800594362,0.825861495,3
0.074780453,0.637528539,3.720236017,3
-0.45979263,0.547177318,3.490044418,3
-0.990205621,0.743528136,4.107378033,3
0.450928093,1.513805623,4.643451757,3
1.697876948,1.828617245,1.644357881,3
1.597351971,1.543089651,-1.630380841,3
0.390412339,0.837028783,-3.511798112,3
-0.036197081,-0.375852501,-3.717027279,3
-0.487147048,-1.606363762,-3.499731655,3
-0.645600493,-1.7490301,-3.022198728,3
-0.047392126,-1.708131448,-3.071078579,3
0.263832816,-1.619280182,-1.144617642,3
-0.105071573,-1.232574073,-1.59910013,3
0.681774527,-0.079553493,0.219443506,3
0.533676874,-0.017446871,3.811585679,3
-0.450407455,0.665053517,2.598323456,3
-0.457990157,-0.132773628,3.295402201,3
0.039463067,0.117636603,2.857745354,3
0.340111313,0.633424741,-0.873007609,3
-1.048151842,0.532808239,-2.604942873,3
-1.806563114,-0.043143424,-0.565105035,3
-1.181309481,-0.103394595,0.195053178,3
-1.331937262,-0.028721416,-2.078468375,3
-1.201168823,0.155029585,-3.759561381,3
-0.403422235,0.349337397,-2.438944912,3
-0.776569901,0.474789558,-0.704445302,3
-0.595334557,1.045224498,0.479876465,3
-0.005542054,0.548419098,4.622901774,3
-0.911516288,-0.228389027,6.484809509,3
-1.13962459,0.115154829,3.663961571,3
-0.502697625,0.993698191,3.904314287,3
0.716497799,1.370408959,2.579774687,3
1.751328967,1.338710938,-1.224970784,3
1.179710162,0.782641312,-2.431314362,3
-0.310530943,0.079065903,-1.550191779,3
0.438693953,0.05404599,-2.275862471,3
0.147208736,-0.150817847,-2.52522142,3
-0.402314683,-0.833188986,-1.439980295,3
0.118875499,-1.044158742,-2.152513804,3
0.368402989,-1.660522508,-0.81867794,3
0.796307362,-1.341436355,-1.579456201,3
1.058873566,-0.702637962,-2.659713729,3
1.081296748,0.208655442,-3.488905668,3
2.830250351,-0.028205494,-1.706552278,3
-0.541429324,-1.020526968,5.254030245,3
-1.206455519,-0.867441641,7.264748887,3
-0.654739892,-0.64048498,6.622636379,3
-0.929920676,-0.550430437,6.760924011,3
-1.132050147,0.049096864,2.54416888,3
-0.381679622,0.387251559,-0.749555183,3
0.231283439,0.427276319,-3.32976183,3
0.470770263,-0.002141985,-4.796151742,3
0.505534877,-0.407622049,-4.121693091,3
-0.062887178,-0.460224531,-3.845327457,3
-1.62576372,-1.219212311,-1.160086845,3
-2.8046162,-1.241256737,0.728668045,3
-1.295623308,0.58921468,-0.268036254,3
-2.304691838,-0.066429258,3.065759814,3
-2.257918086,0.811189003,3.178507035,3
-0.104511853,2.558852945,0.564688134,3
0.131443887,2.167457773,4.942865647,3
0.860627624,1.473725964,4.190067481,3
1.163296098,1.730409204,-1.724825475,3
1.059559338,1.219585523,-2.671789501,3
0.8275485,0.265107689,-2.180050383,3
0.559936345,-0.8488325,-3.361684574,3
-0.132898852,-1.662101066,-3.825024897,3
-0.538122548,-1.780909909,-3.541332639,3
-0.06132836,-1.041259863,-1.350239742,3
0.273535218,-0.308259165,-1.008962419,3
0.354453244,-0.164383613,2.656076873,3
0.070360712,-1.082647511,7.410516924,3
0.32305175,1.427552259,2.924339275,3
1.996672629,2.405558844,4.072309284,3
1.576908964,1.55216969,3.591052851,3
0.68870473,2.051615947,-0.822434906,3
0.878800793,2.347547693,-2.305091665,3
1.095570926,1.653421329,-1.735461168,3
1.248333191,0.753352143,-2.034355219,3
0.80076106,0.181388788,-2.608696987,3
0.339842267,-0.458554711,-3.18993848,3
-0.341090122,-1.190822326,-3.253369195,3
-1.219253189,-2.352797243,-2.074813355,3
-1.221380145,-2.253551057,-2.657483749,3
-0.369832872,-1.095559982,-3.883905629,3
-0.256278509,-0.329064139,-2.128693234,3
0.938453136,1.157517814,-1.483030337,3
2.939510431,2.129572586,4.13529588,3
5.296207759,1.573538093,6.299026333,3
2.534153896,-1.16986634,11.00931577,3
0.838662382,0.358227579,11.45998674,3
4.028671073,2.449881136,2.792568803,3
2.621374599,1.631074604,-2.435668858,3
-0.466561506,-0.542412635,-3.544258305,3
-1.024162441,-1.437304074,-3.172707531,3
-0.581294043,-1.507669067,-3.507205611,3
-0.96943331,-1.278771278,-3.639592902,3
-1.55922151,-1.11649051,-2.342938619,3
-1.341303866,-0.066882232,-1.918667314,3
-1.609521127,0.807707325,-1.909761454,3
-1.695747114,1.226756197,-0.834176355,3
-1.90286483,2.436002867,0.500921868,3
-2.057893455,3.850378573,-0.064231782,3
0.726749196,1.508494673,5.612621625,3
-0.942086406,-3.883941681,11.92122701,3
-0.867695668,-2.419747295,3.532484323,3
2.784935807,-0.660476466,-0.713060797,3
4.363317128,-0.536259322,-3.036988093,3
1.824448316,-1.275380418,-4.929580429,3
0.487748938,-1.213184586,-3.703369877,3
0.237949845,-1.08013393,-0.666057233,3
0.241880262,-0.761569022,-0.508497054,3
0.627595878,0.095190882,-1.255161928,3
0.719419172,0.642233936,-0.787697466,3
0.213295091,0.563259199,0.002379273,3
-0.712500022,0.133558193,0.03587483,3
-1.189210432,0.576009772,-0.77277519,3
-0.868624724,0.830165896,-0.373729649,3
-0.743913149,0.470395653,1.683806877,3
-0.966201435,-0.442063064,3.197288002,3
-0.304466229,0.035395118,1.197698645,3
0.719703204,-0.579708487,1.871995105,3
0.256005099,-2.764867072,3.008167658,3
-0.847515441,-3.168610281,1.443341909,3
-0.157208065,-1.485872252,-1.635632055,3
1.612763107,-0.225130958,-2.463599763,3
0.91356312,-1.036807767,-0.657507953,3
-0.860320494,-1.383991501,0.951715727,3
-1.630398793,-0.316575478,0.142792472,3
-1.618631914,0.281495293,-0.781869544,3
-1.589727394,0.104459143,-0.935330984,3
-1.024929483,-0.061706627,-0.170740991,3
-0.475269768,-0.146650372,-0.94980636,3
0.04823345,-0.505610697,-1.464589733,3
0.359446655,-0.884912792,-2.32836772,3
0.317907963,-1.146944609,-3.007321418,3
0.19671826,-1.687124032,-1.447600796,3
-0.559576722,-0.77016356,-3.431042346,3
-1.370576855,0.334882139,-2.156469181,3
-0.473169094,-0.369829979,2.975753734,3
0.990026515,-0.149886903,5.163691103,3
0.626303156,1.136423523,2.772972752,3
0.829991446,0.391912094,5.20544869,3
0.269569892,-0.693142929,5.342083126,3
-1.624022061,-0.813377243,2.197962953,3
-1.633322565,-0.187681043,-1.119546357,3
-1.744760247,-0.126548047,-2.431665417,3
-1.673189578,-0.445095088,-2.942559711,3
-1.486430151,-0.968637832,-2.52580294,3
-1.785653849,-1.45666162,-1.804970739,3
-1.659532992,-1.15363406,-2.467738074,3
-1.281449854,-0.854727885,-1.996781702,3
-1.133290232,-0.931868521,-0.324672736,3
-1.359585777,-0.575584956,-0.910704195,3
-1.20635906,0.366662954,-2.07326551,3
0.957662615,0.46786057,2.084143075,3
0.546689804,0.817486645,4.841138942,3
0.45172761,1.250837235,0.801330018,3
0.289140186,1.07041303,3.11948365,3
0.046311187,0.622540932,7.199540705,3
0.519198685,1.301980469,2.898223296,3
1.330830228,1.213749603,-0.266841214,3
0.666168408,0.354701158,-1.356375849,3
-0.373428795,-0.140061758,-2.850745645,3
-1.066046739,-0.219766799,-3.772044941,3
-0.415772541,-0.659582639,-3.696668005,3
0.004247546,-1.519750507,-3.26345791,3
-0.013533514,-1.953524138,-3.763514605,3
0.385291909,-1.648416804,-4.005054475,3
-0.290868737,-1.15902624,-0.850866453,3
-0.063786688,-0.450543438,0.550191531,3
0.944365468,0.360124462,3.676594369,3
0.897865083,-0.497082553,6.871709876,3
0.69174909,0.216717662,4.748685369,3
-0.45703723,-0.14286413,5.100502655,3
-1.00492853,1.095187779,1.532608398,3
-0.451319728,1.975883294,-0.209429197,3
-0.453496458,0.76355355,1.62119052,3
-1.47452459,-0.160768416,0.539055735,3
-1.470924534,0.180527459,-2.393833573,3
-1.370189179,0.339077801,-2.814455934,3
-1.572953218,-0.426363941,-2.411453141,3
-1.886488797,-0.867993911,-3.177552221,3
-1.53674017,-1.137512552,-2.585558455,3
-2.210274183,-0.999458,-2.565302159,3
-2.040202113,-0.558845128,-2.211159987,3
-1.757102379,-0.02049851,-0.96417579,3
0.17476697,0.906244205,0.598969883,3
0.332211964,0.678112304,2.847084196,3
-0.579646426,0.056895999,6.256714207,3
-0.167752104,0.748150639,4.135671772,3
1.505481749,1.239545195,3.643304019,3
0.638082829,0.157723493,4.5037582,3
0.075174187,0.170082744,0.980649064,3
0.289957356,0.740582381,-1.697326125,3
-0.091962255,0.533072957,-2.625589384,3
-0.68366554,0.014300787,-3.485139239,3
-0.812847625,-0.188632497,-3.665413446,3
-0.803053494,-0.867799255,-2.842538408,3
-0.326750991,-1.361000312,-2.513356585,3
-0.028139542,-1.442140372,-3.50917386,3
0.721732122,-1.432282141,-1.717781501,3
0.285077601,-1.338322479,-0.316344162,3
0.233886155,-0.049711952,-0.045037551,3
-0.906264775,-0.535061055,3.659492449,3
-1.901304563,-0.564018816,5.414825656,3
-0.4192923,0.178465991,3.907526726,3
-1.308092189,-0.812527592,7.153609963,3
-1.608523425,0.236017981,2.838780161,3
-0.390887377,1.810163013,-0.456272889,3
-0.681308271,1.612498526,-0.675314235,3
-1.561503179,0.688101536,-0.376352323,3
-1.860944156,0.225919671,-0.957153012,3
-1.364309114,0.157810698,-2.081891927,3
-0.490335499,0.104247618,-3.00638815,3
0.065944927,-0.140494717,-2.850636152,3
-0.41178176,-0.815303413,-1.928114113,3
-0.275697344,-1.225038528,-1.483233235,3
-0.207820155,-0.826473745,-2.527238632,3
-0.940932011,-0.608143797,-0.106416734,3
-1.124121096,-0.05552676,1.3996645,3
0.165953829,1.413900188,0.72961209,3
1.067678896,1.555077887,1.900930041,3
1.22894582,0.735737589,5.2436442,3
0.097527287,-0.179707113,5.550084635,3
0.046219215,0.235885207,4.010686779,3
0.996783487,0.663619133,1.995934128,3
1.045631782,0.297899259,-1.288593036,3
0.262344655,-0.189445207,-3.569747204,3
-0.332608198,-0.520969962,-4.134421716,3
-0.628832915,-0.96163699,-3.697790746,3
-2.392974875,-1.998951647,-2.439699534,3
-1.99085324,-1.988936426,-3.542976913,3
-0.540844951,-1.793560335,-2.635652662,3
-0.691197017,-1.643217264,-1.110194393,3
0.127989408,-0.792366763,-0.310601834,3
0.637623775,0.683888442,1.181078568,3
0.522370555,1.135632103,2.883715793,3
-0.120396258,1.181978367,4.058302699,3
-0.910401423,1.70499871,4.388018342,3
-0.169733726,0.953147539,6.810815688,3
0.097794859,0.255855133,3.812953277,3
-0.058429268,0.01827209,-0.9141859,3
-0.165318114,-0.522369915,-2.4979265,3
-0.453048202,-0.626391112,-4.237764267,3
-0.389677128,-0.76406443,-4.488466696,3
-1.314683127,-1.130008736,-3.862326498,3
-2.004292663,-1.196285153,-3.009924393,3
-1.501879902,-0.210282093,-2.344330406,3
-0.49902326,-0.109357201,0.5912509,3
-1.543106916,-0.445512476,1.182456072,3
-0.453679408,1.364362674,-0.662583,3
0.353997094,1.561444422,3.94506886,3
-0.009523062,0.892744985,4.984822367,3
-0.276727017,1.109379168,3.791157296,3
0.515466908,1.130213386,6.625291276,3
1.126753025,0.742442735,4.74502108,3
1.214468884,0.446498526,-1.69043323,3
0.524986771,-0.094192753,-5.027133419,3
-0.174441785,-0.876963431,-4.954827986,3
-0.317047074,-1.408426893,-4.94839894,3
-0.498805921,-2.44588481,-4.260829955,3
-0.152024919,-2.493758479,-3.686602755,3
1.04387406,-2.180528797,-3.567580168,3
1.2428908,-1.795776586,-1.585290682,3
-0.06154616,-0.757851348,-0.881210094,3
0.646040143,0.854605735,1.296582651,3
2.428588155,-0.876362655,4.781621429,3
-1.830800776,0.258094081,7.856600355,3
0.472290247,0.909353503,6.41634522,3
-0.776450221,0.604430594,6.07760311,3
-1.601799079,1.403565238,2.742049965,3
-0.282988812,1.804894418,0.298086856,3
-0.831966241,1.033650279,1.006073125,3
-1.530822298,0.203348012,-0.276047465,3
-0.80573076,0.526734607,-2.668515723,3
-0.239023857,0.513532749,-2.785238231,3
-0.47210158,-0.249223811,-0.953804354,3
-0.651448228,-1.262175218,-0.858047505,3
-0.049317427,-1.278315074,-2.290026822,3
0.273736165,-1.258086877,-2.545395756,3
-0.174210873,-1.396519664,-2.234940853,3
-0.452285213,-1.183511936,-2.142307364,3
-0.334601938,-1.001220728,-1.603943869,3
-0.375628277,0.105321694,-1.968860205,3
0.090500526,0.52523472,-1.730063403,3
1.058502387,0.203121526,2.277680239,3
-0.023031059,0.512517119,4.142480951,3
0.974961333,1.099215935,2.085800946,3
1.073529825,0.56632281,6.138594584,3
-0.161844893,-0.304018177,6.819042667,3
0.913506251,1.181177569,1.907178114,3
2.725574937,1.253914816,-2.785297078,3
1.607866582,0.623808414,-2.404909909,3
0.738224503,-0.388149715,-3.047456306,3
0.872276769,-1.033625971,-4.475562537,3
0.763177398,-1.753032987,-3.77748325,3
1.018235106,-2.19423428,-1.048841586,3
0.82142743,-2.192094472,-0.897118374,3
1.364628902,-1.555785647,-1.790078365,3
1.345572188,-1.46611828,-1.201651989,3
0.668709181,-0.696282688,1.421394713,3
0.014490102,0.102016891,1.813172681,3
0.631191874,-0.322552662,3.153853534,3
0.281100166,-0.817405495,4.465771378,3
-0.468060138,-0.622678553,2.589352101,3
-0.597790934,-0.241994957,2.158455223,3
-1.634930968,-0.79946529,4.850402502,3
-2.40701612,-0.442589133,4.851588656,3
-0.916189029,0.549633254,1.630934985,3
-0.193414463,1.160004786,-0.365049494,3
-0.35036495,0.901063915,0.152988552,3
-1.300608652,0.695825705,0.223632067,3
-1.402964333,0.670043468,-0.012160485,3
-1.819450815,0.245612665,0.393957419,3
-1.898950047,-0.05284963,-0.349258846,3
-1.70436547,-0.141890255,-1.170641552,3
-1.244928399,-0.325021867,-0.519882643,3
-0.29381566,-0.428341955,-0.292362493,3
0.147388762,-0.276526684,-2.230031583,3
0.42811417,-0.876357936,-0.123419878,3
-0.381096905,-1.779040035,3.144146284,3
-1.472132019,-1.595331315,-1.031220529,3
-0.104268001,0.171524774,-4.254251013,3
2.312853582,0.747016472,-1.728803235,3
2.804858768,0.3095886,0.735658846,3
0.877102003,-0.130691683,0.313003598,3
-0.317572067,-0.142163669,-0.584625182,3
0.078356718,0.497244931,-1.083524025,3
0.268437975,0.966782244,-1.804848735,3
-0.148267433,1.308537018,-1.923311498,3
-0.98325778,1.416983069,-1.0552688,3
-0.794701026,1.61442572,-0.478023963,3
-0.536884884,1.93887014,-0.468371262,3
-0.237367757,1.877334703,-0.173475591,3
-0.507053287,1.448612321,1.245713756,3
-0.400167684,1.031507868,2.030408775,3
0.064401955,0.27611463,2.086812553,3
-0.07999479,-1.218047984,2.651359675,3
-1.174008007,-2.646532989,2.277595595,3
-1.415406631,-2.422674986,-0.849425945,3
-0.05198201,-1.342349054,-2.436104924,3
1.219099407,-1.218891341,-0.967247629,3
0.295623286,-1.75203256,0.991099906,3
-0.956950818,-1.492245789,0.165979851,3
0.089753316,-0.809203892,0.213548006,3
0.498349427,-0.836955567,1.017313683,3
-0.100122471,-0.872161162,-0.023407967,3
-0.081990254,-0.092070426,-0.387658973,3
0.149472069,0.190499179,1.251620009,3
-0.395882235,-0.180121332,2.03203439,3
-0.90250709,-0.323806978,1.408742987,3
-1.1125758,-0.405708066,0.878541917,3
-1.157886371,-0.327849481,0.258742187,3
-0.411785237,-0.177088535,-0.94517932,3
-0.15739563,-0.74444055,-0.451144219,3
-0.416672075,-1.586730802,1.400740853,3
-0.776752463,-1.608211091,-0.210433506,3
-0.532054478,-0.651513777,-2.294772635,3
0.933993446,-0.459229081,-1.102806849,3
1.075432754,-0.770613615,1.809590769,3
0.224380814,-0.630202095,0.979927361,3
-0.703469607,-0.062126753,-0.786409174,3
-0.280369346,0.316984347,-2.138102823,3
-0.158971073,0.401287352,-2.205842945,3
-0.726738268,0.031197823,-1.933202695,3
-1.17836139,-0.144193081,-1.948113291,3
-1.015235792,-0.43125847,-1.93147732,3
-0.992045896,0.019471502,-1.921033603,3
-0.207167317,0.365971428,-1.817905125,3
-0.69164591,0.002599754,0.161026546,3
-2.119884348,-0.11066007,2.178882224,3
-1.090824888,-0.295003235,2.853296885,3
-0.823881837,-0.462564679,3.280744342,3
-1.149253644,0.392130931,1.853932713,3
-0.089694011,-0.288432391,4.014726633,3
-0.866010815,-1.673211877,3.75764267,3
-1.65197518,-1.864464828,-0.960094101,3
-1.687513515,-0.796163556,-2.908992449,3
-2.684949673,0.725117702,-2.632107121,3
-2.656632436,0.610989996,0.560882689,3
-1.140169733,0.405827544,1.779773378,3
-1.180230497,1.167618772,0.419038226,3
-0.884963056,0.316240707,0.839786749,3
-1.157000061,0.026539286,0.180970914,3
-0.74937984,-0.1744539,-0.816289434,3
-1.253789582,0.270757937,-1.025040786,3
-1.253650045,-0.376835462,-1.656411673,3
-0.306811269,-0.443192941,-2.081768913,3
0.198713566,-0.533699601,-2.268857404,3
-0.966900284,0.215810591,-1.271862856,3
-0.018945588,-0.199379348,-1.161203353,3
-0.626703376,-0.313551531,-0.345531604,3
-1.244450557,-0.208871037,0.366701141,3
0.20761293,-0.309692985,0.346604201,3
-0.845420082,0.332399993,2.377319546,3
0.454654833,-0.835119815,4.570209066,3
0.504709115,-0.987371687,3.293227718,3
-0.46647018,-1.262967344,1.501038001,3
0.476184067,-0.985475181,1.226691324,3
1.10017489,0.201811442,0.496773208,3
-0.585282843,0.934236129,-1.784037112,3
-0.747638476,0.12889263,-1.794866446,3
-0.392372563,-0.017933189,-1.610679777,3
0.031065188,0.116935825,-0.813670669,3
-0.861437383,0.251832233,0.518110977,3
-0.288609989,-0.267168848,-0.05757255,3
0.105606692,0.390454444,-0.249614004,3
0.306256793,0.314585353,-1.411089742,3
0.943720581,-0.070430292,-2.555688064,3
0.21721214,0.209517377,-0.998786457,3
0.19363628,-0.501392554,-0.983986114,3
0.2819514,-0.580810807,-1.94636017,3
0.498131544,-0.32679171,-0.959704516,3
0.066823804,-0.17877634,1.712210123,3
-0.420336673,-0.347426595,4.659704548,3
-0.130666984,0.32903779,3.772018968,3
-0.389552116,0.463683735,5.94710242,3
-1.051557368,-1.136675598,5.329858675,3
-1.570799773,-0.454882892,-0.46081973,3
-0.767727426,0.158125203,-1.960503016,3
-1.165977325,-0.126048842,-2.154161201,3
-2.425178333,-0.427939558,-1.740993558,3
-1.173259856,-0.128392871,-1.662842713,3
-0.451276507,-0.160215771,-1.643428231,3
-0.870673784,-0.917878889,-1.428582486,3
-0.85520828,-0.832769927,-1.170597258,3
-1.902433393,-0.793561218,-0.607752965,3
-1.703414389,-0.848525335,-0.693814969,3
-1.14088933,-0.442386927,-2.10505229,3
-0.924581943,0.188931175,-0.740789567,3
-0.590076289,0.46904876,-0.841052322,3
-0.499937141,0.488761718,1.691634918,3
-0.229697535,0.295138013,5.776825845,3
-0.046305023,1.182111681,2.295666347,3
0.094822075,0.556144127,1.522467011,3
1.462876752,0.011646394,0.8651052,3
1.096188432,0.620652404,-1.545994336,3
1.06443008,0.370809062,-1.01743367,3
0.516335971,-0.684626232,0.190926474,3
0.436508771,-0.665026463,-1.436547469,3
0.091239194,-0.542574615,-1.673059658,3
0.432709034,-0.278645641,-0.879838112,3
0.685026274,-0.05452743,-1.527293644,3
0.77047673,-0.12806998,-1.739937357,3
1.01158202,0.261246634,-2.118622377,3
0.937027625,-0.010208066,-0.243387032,3
0.315604568,-0.40697304,0.24796864,3
-0.29816842,-0.582156679,-2.71351353,3
-0.040336927,0.056186026,0.626694392,3
-0.210154442,-0.767447157,3.699301108,3
-0.013986249,-0.134410184,-0.709695793,5
0.06279022,0.101377587,-0.281298468,5
-0.265820299,0.018725156,0.043823374,5
-0.689245607,0.041791657,0.364595715,5
0.216319473,0.129184533,0.058678796,5
0.433654521,-0.037111897,-0.243818786,5
0.049570726,0.275094068,-0.110083245,5
-0.01791513,0.083301908,0.120289155,5
0.176205365,0.106913155,0.018387839,5
0.131982947,0.079400933,-0.197914862,5
0.097493992,0.104879041,-0.193981522,5
-0.130482908,-0.041139834,0.05457782,5
0.033939256,0.197600577,0.062296698,5
-0.121168563,0.222596114,-0.095999445,5
-0.103402606,0.162596474,-0.012667093,5
-0.180247399,0.10148438,0.068337428,5
-0.192484411,0.163284145,0.146539723,5
-0.172720883,0.073271776,-0.006150752,5
-0.255218177,0.01955324,0.009590308,5
-0.137929226,0.093947423,-0.042999352,5
-0.112217886,0.094929614,-0.032991314,5
-0.389247949,-0.138918377,-0.031092716,5
0.048836308,-0.034440567,-0.076821446,5
-0.119511102,-0.091425671,0.049048809,5
0.002378113,-0.04627309,-0.000364178,5
-0.047745171,-0.016623596,0.05619553,5
-0.004269003,-0.068725515,-0.005336207,5
-0.067263109,-0.136278914,0.081075231,5
-0.030691171,-0.076651609,-0.038608231,5
-0.099860776,-0.218250569,-0.122633782,5
-0.028411603,-0.108412447,-0.060176599,5
-0.019209634,-0.118925164,0.028574596,5
0.075081488,-0.086532691,0.152415872,5
0.078172991,-0.052801335,0.317952081,5
0.142164416,-0.04720658,0.120392561,5
0.063176958,-0.012382999,0.11346371,5
0.129997159,-0.015396837,-0.058237356,5
0.034889244,0.013155029,-0.196688048,5
0.065557807,0.013689434,0.01193993,5
-0.189232634,-0.182056343,0.125578714,5
0.114112674,-0.185699926,-0.056413486,5
0.088926653,-0.077084429,-0.09577724,5
0.195654013,-0.113566698,0.022378624,5
0.137884627,-0.053753094,-0.053844415,5
0.150003916,0.022908146,-0.112644472,5
-0.009176253,0.036565021,-0.068263257,5
-0.100186165,0.053246026,0.083940189,5
-0.214394294,-0.053380003,0.175144801,5
-0.127045701,-0.058449997,0.19904976,5
0.000870999,0.104160767,-0.038065392,5
0.028661983,0.146767366,-0.195144819,5
0.012483511,0.161859387,-0.139988411,5
0.04825004,0.297192593,-0.209936205,5
-0.043351856,0.188830343,-0.140630347,5
-0.029777554,0.051938263,0.029737533,5
-0.106520714,0.109922817,0.098548324,5
-0.020813504,0.0110361,0.032548238,5
0.128897403,-0.036066895,-0.084370631,5
0.202911006,-0.162868018,-0.127663666,5
0.249599995,-0.100229271,-0.087683308,5
0.268173705,-0.044994303,-0.040805648,5
0.066351133,-0.028765698,-0.043006616,5
-0.009232242,0.017978268,-0.104091307,5
-0.247788937,0.073857394,-0.076307017,5
-0.266524646,0.042388393,0.110432941,5
-0.087358002,0.020212077,0.17761873,5
-0.072834957,-0.030746578,0.043681433,5
0.008663318,-0.050494318,0.035568153,5
0.162799817,-0.019896199,0.09459424,5
0.171439418,0.061060178,-0.170857236,5
0.10976931,-0.049203456,-0.198565728,5
0.030186845,-0.032562424,0.032794752,5
-0.012488361,0.042729471,0.113019686,5
-0.135207835,-0.044481469,0.020788722,5
-0.065756693,-0.007113345,-0.053767084,5
-0.004622686,0.009176646,-0.029424925,5
-0.034757845,-0.083407641,0.093382056,5
-0.010999668,0.01240791,0.101305561,5
0.008155293,0.02006062,-0.110157955,5
0.055806033,0.069146466,-0.016144379,5
-0.030103611,0.047501515,0.002838453,5
-0.010037737,0.020170991,-0.109650026,5
0.000543375,0.077057095,-0.036632816,5
-0.07456461,-0.029381734,0.059516946,5
-0.08573031,-0.012918432,0.144083257,5
-0.052921206,-0.015060973,0.049515882,5
-0.09095357,0.093282225,-0.038674816,5
-0.041557861,0.042232286,-0.00573498,5
0.104659491,0.140265891,-0.01046088,5
-0.023845944,-0.042989655,-0.051403752,5
0.011952689,-0.004510197,-0.0583239,5
-0.060928595,0.04873865,-0.036292115,5
-0.067071787,-0.032602711,0.139733167,5
0.205878965,-0.091648385,0.296024481,5
-0.003043862,-0.160195868,-0.231688033,5
0.057301445,-0.111059647,-0.465684661,5
-0.05135013,0.481885288,-0.285347774,5
-0.239867559,0.027991438,0.386647107,5
0.133763938,0.001237092,-0.099277145,5
0.4484798,0.025377888,-0.104449289,5
-0.291122312,-0.007111446,0.270220289,5
-0.344900819,0.085993895,0.978007598,5
0.175669534,0.028543014,-0.053738654,5
-0.510562622,0.105359281,0.078975181,5
-0.38581736,0.257148405,0.239198868,5
0.188034476,-0.322589054,-0.311576799,5
0.545944657,-0.136776901,-0.128836859,5
-0.64911613,-0.214937934,-0.519726612,5
0.06114631,0.069815302,-0.802019722,5
-0.082487495,-0.150815303,0.022185589,5
0.123854237,-0.266775099,0.208553155,5
0.331693283,-0.276484224,0.052182466,5
0.01004906,0.37045678,0.501845911,5
-0.510888764,-0.116007771,0.21949216,5
0.407120299,0.113961841,-0.599807104,5
0.10937176,-0.543133058,-1.523996822,5
1.463731939,-0.550336466,-1.472650516,5
0.992067195,0.268820296,-0.663884453,5
0.788363004,0.34697143,0.175652332,5
0.075051084,-0.004419933,0.139770792,5
-0.462889894,-0.205052626,0.443258112,5
-0.803445817,-0.304674308,0.565843993,5
-0.352404206,-0.366624787,0.928323852,5
-0.325400915,-0.154480731,0.857753163,5
-0.11724497,-0.031004376,0.006670841,5
-0.056512191,-0.085542094,-0.035825608,5
-0.38852205,-0.443246023,0.831933175,5
0.230989904,-0.036844261,0.494498963,5
0.11316595,0.164471733,-0.241514979,5
-0.157469608,-0.134903879,-0.090072072,5
-0.267624643,-0.125813013,-0.166420362,5
-0.011123482,-0.015878638,-0.311165248,5
-0.013459581,-0.088832639,-0.191450201,5
-0.100506416,-0.063976718,-0.298891265,5
-0.306658837,-0.032710563,-0.690354251,5
-0.300923459,0.051048069,-0.160270558,5
-0.118974404,0.143497567,0.094687385,5
-0.138058554,0.111450362,0.324359756,5
-0.087835717,0.047738875,0.12698544,5
0.002057769,0.177307753,-0.441147902,5
0.19171428,0.130036321,-0.382578247,5
0.068307627,0.003138183,-0.00167603,5
0.119197325,-0.218712182,0.112291764,5
-0.038205406,-0.132597379,-0.477563979,5
-0.022641223,0.01570969,-0.560948386,5
0.128169425,0.158175506,-0.323733315,5
0.238495965,0.134672572,-0.295361294,5
0.293487702,0.068050133,-0.097215518,5
0.212475618,-0.097345922,0.251152686,5
0.036528391,-0.203835794,0.390858833,5
-0.005496164,-0.256662829,0.31237497,5
0.086725392,-0.23720287,0.325255699,5
0.076874938,-0.180951663,0.217068582,5
0.065878648,-0.172217258,0.0286065,5
0.113929308,-0.004035144,-0.236925081,5
0.374875441,0.123630758,-0.086523258,5
0.290355937,0.154349479,-0.012825749,5
0.154853906,0.099509576,-0.131175321,5
0.067460947,0.079276176,-0.042096456,5
-0.01506597,0.00909838,0.078329631,5
-0.232828132,-0.074694706,0.187847044,5
-0.186505826,-0.039575379,0.255815922,5
-0.202071622,-0.07215097,0.36864751,5
-0.029136232,-0.06704019,0.209330079,5
-0.046543535,-0.112728845,0.145888576,5
-0.122291636,-0.097532845,0.099135839,5
-0.204675097,0.011861096,-0.169960255,5
-0.107054114,0.044000432,-0.19993664,5
-0.001351344,0.027799138,-0.324466808,5
-0.037776264,0.0793977,-0.070186035,5
0.007223356,0.106845348,-0.110726331,5
0.071607029,0.083714609,-0.13950174,5
-0.006614003,0.131297351,-0.231767243,5
-0.013209713,0.162186827,-0.318501433,5
-0.213461621,0.017044566,-0.149468156,5
-0.540538347,-0.125402044,0.020522578,5
-0.42452478,-0.090624815,0.429529711,5
-0.043315497,0.023522173,0.492265858,5
0.24763792,0.115290634,0.295444725,5
0.350999122,0.17242144,-0.133634424,5
0.175939942,0.129858053,-0.270188189,5
0.090096768,-0.013348782,0.295620717,5
-0.045007271,-0.064613647,0.486126138,5
-0.086438193,-0.024258186,-0.078862648,5
-0.089722869,0.054804637,-0.476021081,5
-0.154378009,0.05205704,-0.065436704,5
-0.347481968,-0.007993136,-0.118702022,5
-0.31230484,0.046110152,-0.492769831,5
-0.038026338,0.254797827,-0.946456893,5
0.169090059,0.322946323,-1.093270755,5
-0.007381087,0.092610329,-0.700443924,5
-0.165497642,0.040309565,-0.432339326,5
-0.163844442,0.104342583,-0.27748438,5
-0.150938203,0.158543325,-0.166477152,5
-0.114791003,0.224126079,-0.082649853,5
-0.082786905,0.174826017,0.116014872,5
-0.042537043,0.050643727,0.460587315,5
-0.084514818,-0.06082245,0.70572128,5
-0.010987647,-0.008604987,0.583163181,5
0.110385308,0.205270495,0.385660083,5
0.187438401,0.198332332,0.330701736,5
0.062133332,0.16475332,-0.114307571,5
-0.053006621,0.115733635,-0.186434839,5
0.208011538,0.151991101,-0.045573687,5
0.269799312,0.145739413,-0.152555171,5
0.093589507,0.068893221,-0.554141886,5
0.018484314,0.154740255,-0.825691253,5
0.219516291,0.229930037,-0.231193606,5
0.231137358,0.138297419,0.262537603,5
0.048943492,-0.013208045,0.210673199,5
-0.077414873,-0.107947424,-0.000131898,5
0.155067021,-0.145214154,0.210208571,5
-0.098115635,-0.289296452,0.012684697,5
-0.425795373,-0.35326175,-0.092179128,5
-0.333072697,-0.171996015,-0.463630295,5
-0.226878316,0.052774561,-0.433882731,5
0.010200609,0.193936402,-0.040446968,5
-0.023368953,0.072069411,0.530230274,5
-0.129420522,-0.149946259,0.961368579,5
-0.128324346,-0.108943702,0.590278509,5
-0.037594471,0.094564689,-0.312744297,5
0.177443748,0.104159781,-0.334233879,5
0.100774957,0.043067725,-0.332421827,5
0.085154041,-0.048556091,-0.236988009,5
0.00909155,-0.18503519,0.025536944,5
-0.069422124,-0.210028255,-0.166194775,5
-0.042216883,-0.038766686,-0.177855142,5
-0.043652992,0.038249182,-0.013334452,5
0.056211665,0.084841553,-0.117490518,5
0.111958697,-0.012053647,0.011987542,5
0.0117381,-0.09469157,0.185989182,5
-0.207720517,-0.084170498,0.352630451,5
-0.30533551,-0.13406357,0.50772194,5
-0.190633527,-0.07956147,0.309440136,5
-0.06719274,0.006129651,0.250561397,5
0.007351453,-0.097255477,0.364061702,5
-0.166832139,-0.136018711,0.121174248,5
-0.044893814,-0.045093039,-0.104273932,5
-0.186359547,0.007635118,-0.117273224,5
-0.190792948,0.071273359,-0.174683768,5
0.068449388,0.131898634,-0.05625996,5
0.057951113,0.205294735,-0.187998998,5
0.06616265,0.154315762,-0.118902506,5
-0.004792722,0.107889043,0.073482751,5
-0.099600067,0.008171935,-0.082975606,5
-0.04914759,-0.017828194,0.063254417,5
0.094446059,-0.075673486,0.18655441,5
0.088061278,-0.216456498,0.152990217,5
-0.126706095,-0.090882647,-0.538201424,5
-0.05645607,0.13486993,-0.68804711,5
0.031833824,0.137813415,-0.142771489,5
-0.075340336,0.133296873,-0.255517355,5
0.164595685,0.217303137,-0.028313912,5
0.481309407,0.221474338,0.271635446,5
0.446426564,0.126501389,0.286730887,5
0.244672053,-0.034002853,0.314743757,5
-0.002039735,-0.003484307,0.037776005,5
-0.067502318,0.035263273,-0.148480575,5
-0.213131317,0.006929828,-0.299002764,5
-0.276870104,-0.028133387,-0.095260485,5
-0.307626256,0.043134987,-0.135638878,5
-0.145251161,0.022005825,0.066231302,5
-0.12038145,0.058050398,-0.239620791,5
0.137342112,0.071215337,0.092364498,5
0.122619522,-0.015254411,0.187618136,5
0.095969464,0.011116418,-0.108959932,5
0.036025826,0.019265379,-0.045574508,5
-0.130175217,-0.041786307,-0.081830566,5
-0.144802388,-0.039381263,-0.001614064,5
0.001202596,0.029548053,-0.037401813,5
-0.060503594,-0.024085829,0.086534763,5
-0.197727884,-0.052727127,0.073312438,5
-0.084962229,-0.014300675,0.152885823,5
-0.127495474,0.04708352,0.10137864,5
-0.161736841,0.07946742,0.083463743,5
-0.160547633,0.072192945,0.108664072,5
-0.211878728,0.017090188,0.140375333,5
-0.059109255,0.054716355,0.093667861,5
0.121069357,-0.016501919,0.134420233,5
0.133697342,-0.004205245,-0.108134097,5
0.254325069,0.023493474,-0.197289915,5
0.239938309,-0.043627577,-0.153141708,5
0.153767646,-0.070922328,-0.230473658,5
0.044414582,-0.118894234,0.081984081,5
-0.051594363,-0.122188012,0.04728511,5
-0.043674852,-0.005187986,-0.353304945,5
0.141806479,0.055370252,-0.194482864,5
0.109037201,-0.026513944,-0.102922218,5
0.197807215,0.003466503,-0.194833073,5
0.279302256,0.015353598,0.211767694,5
0.190268436,-0.000769162,0.237964497,5
0.104196375,0.054528957,0.050312417,5
-0.002952768,0.029806356,0.00577945,5
-0.009576511,0.082021229,-0.114403424,5
0.031801295,0.102187131,-0.012047965,5
-0.012356613,0.043957546,0.148513067,5
-0.152338545,-0.036624836,0.07786055,5
-0.188315737,-0.006558143,0.129481137,5
-0.057919718,0.082987952,0.018864753,5
-0.110398396,0.04527672,0.01487194,5
-0.266850308,-0.058062613,-0.059936372,5
-0.224837296,-0.058162441,-0.131338206,5
-0.152505038,-0.071250837,-0.02990801,5
-0.082393938,-0.062168424,0.057272377,5
-0.025528047,-0.009247483,-0.043343783,5
0.115090299,0.148371085,-0.14306117,5
0.185705114,0.160423779,-0.136864774,5
0.13149422,0.087205053,-0.027216265,5
0.037150209,0.081376623,-0.117907334,5
0.141347095,0.182421343,-0.184981223,5
0.057689849,0.117836757,-0.100620692,5
-0.146822027,-0.023885892,-0.040387657,5
-0.10936227,-0.111323596,0.154203562,5
0.013277847,-0.074890831,0.189921254,5
0.059648927,0.002839655,-0.113715113,5
0.024637806,-0.033088945,-0.19187485,5
0.07467252,-0.041472093,0.085966642,5
0.048372709,-0.016928198,-0.026558296,5
0.092867926,0.057291153,-0.12164505,5
0.15377616,0.118681324,-0.180640673,5
0.120147955,0.074865435,0.126412909,5
0.082517052,0.099211678,0.062000693,5
-0.003285517,0.117328009,-0.029823446,5
-0.036656032,0.083355,-0.03890338,5
0.009550138,0.055962046,0.14467365,5
-0.101965124,0.000642631,0.118565621,5
-0.068450137,0.02731743,0.077131252,5
0.015592748,-0.056424752,0.032929444,5
-0.125138746,-0.159306347,0.077845852,5
0.035296517,-0.01964872,-0.013515004,5
0.233167989,0.175070294,-0.137876638,5
0.238018029,0.24102429,0.024358636,5
0.125004617,0.173777034,0.13819272,5
0.205257026,0.12275281,0.220242175,5
0.157048265,0.091578161,0.03755943,5
0.046369306,-0.009563405,-0.240206485,5
0.036651863,-0.232845557,0.013712659,5
-0.084297815,-0.330457663,0.044009356,5
-0.076974941,-0.211230752,-0.323281215,5
0.047961023,-0.037151048,-0.444579529,5
0.18857491,0.037176653,-0.156030944,5
0.156702296,0.083286345,-0.197055774,5
0.083263175,0.023269746,0.003251192,5
-0.153515638,-0.095048564,-0.161018718,5
-0.522219369,-0.28056643,-0.042466036,5
-0.532271481,-0.361913222,0.08794841,5
-0.390935777,-0.389354914,0.123435674,5
-0.391037612,-0.265434787,0.371911681,5
-0.078668586,0.042302208,0.738445138,5
0.491582669,0.162383856,0.617476358,5
0.281878673,-0.125463677,0.803820691,5
-0.359275899,-0.332251814,0.818853158,5
-0.325615462,-0.091324539,0.23600684,5
-0.301657399,0.089081307,-0.052897741,5
-0.443940898,-0.073641408,-0.212468488,5
-0.231640903,-0.194240813,-0.197491447,5
0.092036109,-0.133629385,0.371136549,5
0.308652194,0.044936119,0.314096449,5
0.501948476,0.011169091,0.585518741,5
0.377003839,-0.369641334,1.303005266,5
0.311122347,-0.572257826,0.844881208,5
0.410861548,-0.42251046,-0.303529766,5
0.394775967,-0.195727371,-0.800136789,5
0.137478641,-0.062397842,-0.77203755,5
-0.125098017,-0.05951487,-0.515017865,5
-0.461485253,-0.074379329,-0.474924313,5
-0.576070245,-0.033737424,-0.648344158,5
-0.181831619,0.193391517,-0.437014895,5
0.078598735,0.408907285,-0.510338786,5
0.030048221,0.409452207,-0.461454924,5
-0.107556799,0.309102136,-0.496580817,5
-0.414984468,0.258437877,-0.531516765,5
-0.540822602,0.238226248,-0.243001902,5
-0.710541092,0.209151274,-0.345922768,5
-0.747906615,0.262089757,-0.47796659,5
-0.624868386,0.314181634,-0.173079875,5
-0.426887174,0.485132058,-0.364161666,5
-0.430810528,0.551382841,-0.339315845,5
-0.287560373,0.421884654,0.157258954,5
-0.382439114,0.246307982,0.031412217,5
-0.247742209,0.104195137,-0.03384144,5
-0.040281041,0.0775622,-0.146922555,5
0.077409504,-0.064539969,-0.24949024,5
0.06578274,-0.106104227,-0.346313298,5
0.317939335,-0.022492845,-0.23332599,5
0.311935118,-0.003366727,-0.258277312,5
-0.00499262,-0.079438601,-0.290606265,5
-0.018456741,-0.033512645,-0.117290643,5
0.092558269,0.012653257,0.132564351,5
-0.006398576,-0.113073176,0.24876313,5
-0.095708782,-0.112349699,0.304486557,5
0.245097354,-0.006259453,0.055857429,5
0.398008298,0.175992616,-0.175065862,5
0.337892827,0.133477174,-0.214443807,5
0.10928201,0.050282575,-0.21692638,5
0.119312188,0.107482479,-0.516899912,5
0.214657998,0.11755482,-0.196768629,5
-0.074161256,-0.05749075,0.617374947,5
-0.283007629,-0.04562265,0.483216517,5
-0.486630824,0.062609522,-0.121185436,5
-0.383714698,0.192515197,-0.35825488,5
-0.439939649,0.180884731,0.269289802,5
-0.328320669,0.220139631,0.073921534,5
-0.253359883,0.156056047,0.182897359,5
0.044370661,0.128024758,0.398914637,5
0.207603384,0.081149913,0.165051086,5
0.240350453,0.03537029,-0.117182269,5
0.148116805,-0.066910349,0.110252549,5
0.145542388,-0.127588454,0.162771436,5
0.026761338,-0.106371417,-0.025072311,5
0.040446503,-0.147688207,0.051643688,5
0.012082439,-0.256187997,0.233984088,5
0.054354224,-0.267342754,0.20130059,5
0.077664874,-0.274526427,-0.064440441,5
0.133585499,-0.243343483,-0.209561072,5
0.104555527,-0.196298065,-0.306563162,5
0.018873193,-0.195312938,-0.21120505,5
0.01123334,-0.124912724,-0.124604917,5
0.077982459,0.054858439,-0.122987086,5
0.089713421,0.127857692,-0.257524846,5
-0.065655569,0.065023696,-0.424569728,5
-0.161279987,-6.41E-05,-0.376783904,5
-0.346413937,0.014302744,-0.343484568,5
-0.359546505,-0.066200525,-0.123448578,5
-0.308321832,-0.029497778,0.007537311,5
-0.536069675,-0.171923522,0.356288922,5
-0.332682796,0.003020665,-0.03714798,5
-0.224348226,0.078754017,0.291604726,5
-0.272815786,0.089362424,0.323581538,5
-0.042607821,0.120911129,-0.020499678,5
-0.056702256,-0.029702977,0.300610168,5
0.050598994,-0.050139414,0.207081268,5
0.124056421,-0.303828441,0.412962143,5
-0.358740489,0.274706554,-0.277758701,5
0.946084905,-0.114038707,0.245943686,5
0.590294826,0.601210779,-0.877407722,5
-0.175365625,-0.160960412,-2.150699063,5
0.4336952,-0.27176753,-1.534466829,5
-0.831114255,-2.287239582,-2.719707874,5
-0.387161548,-1.26825599,1.415397669,5
2.141626329,-2.761360214,0.665262628,5
3.236407018,-1.940695239,0.327498733,5
1.245546973,0.702377204,0.11304044,5
0.298074623,0.307743499,-0.915323407,5
-0.064941684,0.369134301,1.227585983,5
-1.285895169,1.511844696,1.969688678,5
-2.417722519,2.101359665,1.445752282,5
0.906429614,-0.064968353,0.817481224,5
-0.012533631,0.642536528,1.367345998,5
0.075164375,0.386334107,1.84330396,5
-0.239839905,0.325427527,0.846969141,5
-0.272819141,0.107266009,0.04485733,5
-0.161800214,0.160556728,-0.182745093,5
-0.489263406,0.117132715,0.000591196,5
0.077761569,-0.212736058,-0.083844865,5
-0.305922726,0.066725524,-0.113844218,5
-0.153522699,-0.046638925,0.023889774,5
-0.045230026,-0.161179479,0.138294454,5
0.04913249,-0.167243983,0.305186758,5
0.113369038,-0.104190667,0.321707749,5
0.326779238,-0.078109909,0.311078291,5
0.474117662,-0.053019741,0.198495793,5
0.603563829,-0.316423675,0.201671285,5
0.041588391,-0.237711562,0.03765314,5
0.026275625,-0.075371747,-0.177439259,5
0.201702769,-0.151422419,0.02629182,5
-0.241373385,0.181252464,0.16077055,5
0.216921065,-0.216308743,-0.008846016,5
-0.0737768,0.111747358,-0.043741079,5
-0.078180262,0.013789866,-0.027127071,5
-0.093398914,0.031941363,0.337057957,5
-0.061768455,0.043438735,0.430475182,5
-0.018342496,0.052133742,0.056576089,5
0.101639911,0.170044853,0.029014505,5
-0.062206709,0.065680769,0.000526883,5
-0.113025983,-0.010337498,0.2865198,5
0.021674111,0.061767861,0.277849335,5
0.228352892,-0.057430453,-0.030053401,5
0.216821706,-0.019314757,-0.152512611,5
0.174257075,-0.110211025,0.098391599,5
0.262719478,-0.168452317,-0.16216605,5
0.302670655,0.060250374,-0.245052836,5
0.017526899,-0.124324084,0.075369784,5
-0.063292493,-0.06354075,0.017951157,5
-0.055685178,-0.002430912,0.254627759,5
0.253796451,-0.129065831,-0.161615028,5
-0.010612503,0.080071294,-0.348947074,5
-0.106795267,-0.084248214,0.091786144,5
-0.156812117,-0.054033596,0.079243097,5
-0.279859707,-0.109596035,0.123010218,5
-0.130412829,-0.081059786,0.197326858,5
-0.115537581,0.012349098,0.083279191,5
-0.09546198,-0.031657134,0.092158077,5
-0.148242608,-0.036137591,0.125029185,5
0.22927109,-0.276283829,0.113964649,5
-0.203845647,-0.00432312,-0.195305835,5
0.016876112,-0.067727999,-0.288181054,5
0.45612987,-0.46127194,0.364994697,5
-0.454979887,0.480977144,0.461551067,5
-0.983788678,0.418375477,-0.932784916,5
0.020787963,0.071219231,-0.266081102,5
0.008107774,0.195468366,0.140830807,5
0.218131694,-0.182890847,0.137684798,5
0.034720675,-0.052758061,0.153860494,5
0.182444584,-0.063818945,0.46733096,5
-0.001599881,-0.032053533,0.444816833,5
-0.181980052,0.087670766,-1.704338699,5
0.096374279,0.348379615,-0.418985345,5
-0.05312705,0.116302882,0.859571066,5
-0.132882851,0.064795433,-0.249909712,6
-0.376176815,0.353944881,-0.605106411,6
-0.050745508,-0.028393328,0.454942424,6
0.059711329,-0.066012179,0.511877693,6
0.432158365,-0.378407133,-0.51590368,6
0.184961341,-0.137434157,0.015966392,6
-0.051615543,0.017915197,-0.009863944,6
-0.155580682,0.189070552,-0.110770589,6
-0.140536505,0.102257597,0.164929758,6
-0.061772445,-0.06686459,0.252981955,6
0.031244186,-0.073240384,0.15013035,6
0.000503101,0.068486617,-0.006388889,6
-0.015952147,0.039423489,0.037042661,6
0.03885191,-0.071783938,-0.15665217,6
-0.075234042,0.049141706,-0.130702661,6
-0.000328107,0.021347033,-0.108212163,6
-0.038206648,-0.008407495,-0.085628347,6
-0.016875204,-0.054394765,-0.157760512,6
-0.006578552,-0.108911091,-0.100997586,6
0.043637432,-0.032858712,-0.58691836,6
0.136767471,-0.252596766,-1.103718367,6
0.555504976,-0.183342989,-0.038230975,6
0.941605415,-2.413084062,-0.918229802,6
1.23758917,-2.185673594,0.217448149,6
-2.465121176,5.261157389,1.100400772,6
-1.785294533,-0.728987382,-2.692364685,6
0.120680763,-0.099534702,-0.13906954,6
-0.474351685,0.551503293,-1.347502114,6
-0.737845434,-0.657892349,0.02889219,6
-1.193757043,-2.262849793,2.347845939,6
-1.622645499,1.897644623,-0.146207633,6
-0.036254845,-0.686824585,-0.62682925,6
-0.102370124,-0.207459327,0.397146954,6
1.48089746,-0.003836492,1.34781098,6
0.873412585,-0.133945085,1.310178613,6
0.840691526,-0.148543059,1.611416044,6
-0.392075499,-0.272790442,1.701574073,6
-0.100753059,-0.247222546,1.296807652,6
0.642672632,-0.327974914,0.53768191,6
-0.094829033,-0.27991598,0.356121741,6
-0.188480831,0.027003967,0.23335203,6
-0.453291669,0.084988672,-0.974278845,6
-0.321301565,-0.148953132,-1.397798939,6
-1.450676005,-0.289873792,-1.044060043,6
0.446589915,-0.241529231,-0.200832672,6
0.233183879,-0.247861109,-0.392227057,6
0.209914958,-0.622037377,0.473456917,6
0.050160241,-0.599000128,0.704128507,6
-0.154478189,-0.474034387,1.36918775,6
-0.368033846,-0.615889054,0.055970082,6
0.450019415,-0.124745112,0.815110693,6
0.018972717,-0.438714137,0.395410733,6
-0.530281277,-0.21949901,-0.555935801,6
-0.961115931,-0.61624311,-1.104139786,6
-0.438631359,-0.955391857,-0.677141204,6
0.294279187,-0.34008594,0.676924541,6
0.513128284,-0.045499208,1.678652604,6
-0.437384628,-0.99856168,1.222170359,6
0.596988886,-0.528576417,0.793649397,6
0.253676086,-0.362051477,0.874119936,6
-1.103065333,-1.027455079,1.755582949,6
0.034437825,-0.452365588,0.184480851,6
0.025017273,-0.540252808,0.360741583,6
-0.290414414,-0.323169441,0.342410912,6
-0.286775466,-0.251946692,0.220710808,6
-0.081800144,-0.514036432,0.401700333,6
0.137336024,-0.388562241,0.175535737,6
-0.11340019,-0.262569267,0.206892722,6
-0.187658474,-0.431292664,0.193900033,6
-0.119196225,-0.531771885,0.27533825,6
-0.147539765,-0.381224345,0.205741487,6
0.00347607,-0.220775896,0.10582642,6
0.241823148,0.05412744,-0.139112587,6
-0.520090825,-0.708606178,0.209943083,6
0.038024264,-0.494394462,0.382952147,6
-0.093756111,-0.177029991,0.110657093,6
-0.060009058,-0.106815033,-0.050466472,6
-0.035708541,-0.112227223,0.068569796,6
-0.119268004,-0.274451116,0.140811762,6
-0.06862341,-0.219625675,0.234729845,6
0.00677472,-0.205102848,0.183211702,6
-0.0465691,-0.12894279,0.159592301,6
0.093177087,-0.205107755,0.130472026,6
-0.081822238,-0.116914361,0.033709866,6
-0.075114929,-0.121987592,-0.164750672,6
0.016560966,-0.069301975,-0.042934849,6
-0.036277228,0.000787908,0.077068844,6
0.103883671,-0.147678609,0.288226176,6
-0.110326396,-0.058312462,0.012339556,6
-0.14968098,-0.087480564,-0.348796827,6
-0.069464336,-0.089960759,-0.149356903,6
0.00154872,-0.101127139,0.112426518,6
0.014239565,-0.075154506,0.125394401,6
0.000130648,-0.048896741,-0.054238056,6
-0.006268086,-0.068335083,0.110401563,6
-0.060272116,-0.043651967,-0.056666181,6
0.021158398,-0.063012683,-0.019839817,6
-0.043515315,-0.041713073,0.05831402,6
-0.048312941,-0.060799366,0.009341159,6
-0.020646991,-0.051727787,0.0105471,6
-0.02615332,-0.049932459,0.051234658,6
0.010150571,0.001156739,-0.051949028,6
-0.025795233,-0.026771113,-0.019992228,6
-0.050157972,0.019465282,-0.079448229,6
-0.033587144,-0.0112779,0.043478975,6
0.007834221,-0.094601575,0.074041253,6
0.026868738,-0.015732806,-0.052011972,6
-0.020890651,0.013488562,0.00755193,6
0.001494534,-0.061224781,0.092625372,6
-0.002185631,-0.033348814,0.085968174,6
0.006995193,0.015097976,0.013771945,6
0.000290454,0.009622244,-0.018599592,6
0.028227431,-0.038459038,0.010898019,6
0.001588979,-0.042800025,0.019947688,6
-0.001302077,-0.041029062,0.073417448,6
0.032240803,0.00468819,0.060003562,6
-0.036317251,0.011125179,-0.033597994,6
-0.038658686,-0.038917727,-0.029870115,6
0.011830789,0.013161923,0.011708361,6
-0.015152301,-0.01567024,0.015754298,6
0.004833481,-0.02121583,0.009489311,6
0.009810356,-0.011116841,0.055599652,6
-0.030695224,-0.016436458,-0.006500734,6
-0.001653407,-0.017352043,-0.052785245,6
0.03387855,0.00411954,-0.065563908,6
-0.034469746,-0.000551161,-0.009080679,6
-0.000453909,-0.056892638,0.201600216,6
-0.045610259,-0.026411414,0.010549623,6
0.0488834,0.046240044,-0.020892703,6
0.009867118,-0.003708188,-0.013521944,6
-0.051710669,-0.049967141,-0.022577652,6
-0.005767473,-0.018224761,0.008885577,6
0.007511343,0.045162186,-0.031527602,6
-0.024688896,-0.034888063,-0.072712557,6
0.068301817,-0.006334885,0.026580831,6
0.035115895,-0.016911735,0.096704265,6
-0.075800396,0.038620592,-0.042651676,6
0.045707375,0.022961026,0.079471595,6
-0.054218945,-0.04073634,0.011893138,6
-0.024987168,0.018569081,0.004929412,6
0.035857853,-0.001081342,0.013717426,6
0.027180084,-0.045017794,0.00292203,6
0.023756462,0.015284039,0.049184069,6
-0.021295266,-0.009105165,0.013452485,6
0.007265623,-0.017296316,-0.020865713,6
-0.023325964,-0.028042042,-0.010743245,6
0.01232485,-0.001162144,0.005006225,6
-0.004030178,0.004337997,0.03320569,6
-0.00714005,-0.012564065,-0.035695034,6
-0.004748269,0.02013515,-0.06163324,6
0.00256232,0.016922363,-0.043692046,6
-0.011239558,-0.002203564,0.070133655,6
0.022337462,0.021747034,-0.022239692,6
-0.019318338,-0.045509054,-0.030195109,6
-0.015556976,-0.037111061,0.010741076,6
0.005814231,0.006099484,0.037090756,6
0.02155058,0.030622087,-0.041956476,6
0.013845406,0.022590227,-0.05069342,6
0.00558798,0.008843622,-0.013971507,6
-0.01017223,-0.024014757,0.063517353,6
0.012939972,-0.016253431,0.034767853,6
-0.023665175,-0.030945758,-0.009516531,6
-0.02323616,-0.01400168,-0.016344319,6
0.016524544,0.031281384,-0.01850936,6
0.007698168,0.02865941,0.026019299,6
-0.006454629,-0.001152248,-0.005830755,6
0.005041076,-0.012354601,-0.00299083,6
0.003451786,-0.025102356,-0.000580794,6
0.003418498,-0.013584996,-0.006521055,6
0.012292104,0.005281886,0.009749452,6
-0.01019086,0.032865465,0.009295363,6
-0.017488977,0.003201043,-0.011646198,6
0.005540002,0.008641108,0.007287975,6
0.008883733,-0.013791474,0.045478713,6
-0.010722824,-0.006704342,0.060466247,6
0.018811275,0.020202005,-0.02092405,6
0.014286303,0.009271364,-0.017114478,6
-0.014305502,-0.036051208,0.01938326,6
-0.015196921,-0.020384492,0.015983472,6
0.04469584,0.02260338,0.025452402,6
0.007416743,-0.000530301,-0.04818493,6
0.006319886,-0.008008472,0.009498945,6
0.014212147,0.004749465,0.075037261,6
-0.066244006,0.00538896,-0.057176877,6
0.036924302,0.0043038,0.023506338,6
0.001449277,-0.024249078,-0.011705125,6
-0.024445505,0.002064085,-0.050542576,6
-0.002275477,0.01558188,0.046789391,6
-0.013580027,0.003319726,0.010530794,6
0.009185017,-0.010525839,-0.02303683,6
-0.0100986,0.013905649,0.012477401,6
-0.016734604,-0.002136771,-0.015132275,6
0.030391706,-0.008615703,0.016308806,6
0.011550057,0.015113511,-0.018629044,6
0.012021266,0.007036454,-0.003805635,6
0.005059437,-0.006997058,-0.013028104,6
-0.024794631,-0.003026357,0.013434223,6
0.005262571,-0.057060232,0.053524126,6
-0.036616643,-0.009348516,0.040496689,6
-0.035962063,0.009323347,-0.02631382,6
0.016250664,0.004769688,-0.022269983,6
-0.019910901,-0.036047081,0.03790366,6
0.001239974,-0.019585,0.020322684,6
0.026407856,0.041073942,0.002450132,6
0.027150122,0.009979555,-0.008977328,6
0.005923957,-0.001374222,-0.022462681,6
0.034215627,-0.035460813,0.074023534,6
-0.060848083,0.01663817,-0.004757796,6
0.023986261,0.01167165,0.008650514,6
-0.01581415,-0.016756887,-0.042375668,6
-0.016738522,-0.000881451,0.017039908,6
0.018720012,0.027580269,0.032893638,6
0.003376758,-0.012707225,-0.02537145,6
-0.006707321,-0.011164576,0.015553814,6
-0.001321389,-0.006268934,-0.010229593,6
0.00186886,-0.010444472,0.015194318,6
0.016995414,0.04076445,0.002389166,6
0.013294879,-0.014074487,-0.013225286,6
-0.01531002,-0.004828956,-0.029641142,6
0.002637036,0.013775153,0.021693936,6
0.001204716,-0.004341949,-0.010486035,6
0.009453071,0.001048082,0.022158787,6
-0.017730744,0.030150286,-0.090430895,6
-0.018819158,-0.025049277,-0.008327393,6
-0.009970062,-0.014960208,0.036277611,6
0.007303206,0.034148952,0.011012648,6
0.01309622,0.014598138,-0.003063407,6
0.049139352,-0.014545746,-0.003247393,6
-0.01224018,-0.006681642,0.000128864,6
0.000364076,-0.006438772,0.00319963,6
0.03148638,0.018821608,-0.004181765,6
-0.018977945,-0.012109552,-0.023035158,6
-0.043859522,-0.046314529,-0.003978022,6
0.024762249,0.015184336,0.001436022,6
0.008016105,0.010157108,0.010980289,6
0.013758092,-0.011087739,-0.013205637,6
-0.001101443,-0.009533869,-0.004733003,6
-0.023731904,0.001851744,-0.022347426,6
0.014483982,-0.005347471,0.004749652,6
-0.016460688,-0.018335918,0.018752429,6
-0.0068806,0.017715065,-0.056977686,6
-0.001784516,0.035022936,0.005054766,6
-0.001242725,0.005401308,-0.049459776,6
-0.000281057,-0.013259236,0.042909347,6
-0.027103701,0.030916389,-0.080091685,6
0.013133879,-0.006359615,-0.02023008,6
0.009133981,-0.054099077,0.046682026,6
-0.026354199,0.031501591,-0.019494407,6
0.001467609,0.046563759,-0.011062232,6
0.011848337,-0.001384913,-0.01265857,6
0.017731501,-0.007894898,-0.005731199,6
-0.007432714,-0.024619348,0.066186702,6
0.025633172,0.005602551,0.018420772,6
-0.009857272,0.006827277,-0.021399026,6
-0.027151485,-0.009378347,-0.003837951,6
0.018334111,0.014738541,0.008775015,6
0.017407545,0.010724687,0.043128896,6
-0.001841121,0.00135041,-0.021395375,6
-0.010228216,-0.002818804,-0.026863272,6
-0.002353826,0.008872536,-0.000472744,6
0.014382266,-0.004374011,-0.003837124,6
-0.013741764,-0.017150147,0.001593834,6
-0.042960393,0.021179951,-0.026383422,6
0.01518681,-0.018235368,0.038807702,6
0.010672998,-0.001471314,0.09859017,6
0.002367923,0.005492948,-0.030750387,6
0.033117943,0.019378388,-0.037486652,6
0.009734797,-0.030531459,0.01579481,6
-0.04436148,-0.010097765,0.032849916,6
0.008639151,0.055851268,0.011150939,6
0.011992369,-0.001661889,-0.018686451,6
0.013490837,0.002966016,-0.046715715,6
0.020442202,-0.010244726,0.074990729,6
-0.040931892,0.015248834,-0.011740817,6
0.018617723,-0.008101737,0.004698909,6
-0.016514252,-0.027094066,-0.019726172,6
0.004280231,-0.004206729,0.000995023,6
0.014433427,0.017087737,0.011141777,6
-0.012983437,-0.018344322,-0.011551198,6
-0.002772506,0.009890342,0.000983146,6
0.008079411,0.015898236,-0.025540637,6
-0.000595558,-0.027793279,0.03733643,6
0.004786381,-0.001911877,0.00737273,6
-0.016077298,0.01850629,-0.048548831,6
0.017236614,0.002056635,0.049787973,6
-0.017528423,0.04431851,0.03709733,6
0.022107537,-0.000695747,0.014246395,6
-0.010220122,0.006297892,-0.039096843,6
-0.01053447,-0.029428661,0.023680529,6
-0.02287415,-0.037678837,0.034793084,6
0.062042754,0.006017194,-0.059095715,6
0.009177476,0.099539002,-0.199673821,6
0.020583769,-0.01974811,0.051761139,6
-0.067215374,-0.023246908,0.109065482,6
0.010230155,-0.017657412,0.017217827,6
0.075462255,0.004303173,0.018380431,6
-0.00820226,0.019419185,-0.033967893,6
-0.033139934,0.005752798,0.011154026,6
0.010094879,0.01326033,0.040921085,6
0.035756982,-0.004564367,0.028469411,6
0.005504677,-0.019075569,0.019571626,6
0.007949203,-0.023099798,-0.006692057,6
0.005452066,0.00060131,0.005678792,6
0.00338006,0.003747377,0.004700583,6
0.006334367,0.021792387,-0.010297953,6
0.000202305,-0.027674117,-0.017180219,6
-0.034163215,-0.005371616,-0.032802495,6
-0.02487607,0.034417528,-0.055245693,6
-0.005296843,-0.010669271,0.001826324,6
-0.039314718,-0.042390555,0.025397569,6
-0.002092071,0.035291766,0.028366792,6
0.015847601,0.023165926,0.02386746,6
0.022819523,-0.027459244,-0.013985402,6
-0.001364173,-0.005918859,-0.00469802,6
-0.001706693,-0.008878252,0.026409671,6
-0.048194009,0.031172907,0.018006148,6
0.013652982,-0.027433448,-0.008530569,6
-0.015122258,-0.022984709,0.013637757,6
0.022533476,0.021853046,0.028949235,6
0.036011096,0.003099964,0.063761335,6
0.012527157,-0.037585037,0.039689294,6
0.037545405,-0.030641028,0.099336361,6
-0.006241103,-0.029191701,0.02488028,6
-0.088788515,0.041389864,-0.195306617,6
-0.006106052,0.015930038,-0.025583624,6
0.015902817,0.018614319,-0.006619655,6
0.014033821,-0.004369389,-0.030095141,6
0.044009487,0.008178208,0.047070027,6
-0.026687408,-0.015337191,0.005523901,6
-0.023310921,0.008803852,-0.0441828,6
0.014361573,0.032042139,0.020623543,6
0.022793901,0.021083646,-0.060782769,6
0.014378964,-0.011684813,-0.034633508,6
-0.005580791,-0.002201735,-0.005622173,6
-0.043391668,0.006807841,-0.026337563,6
0.017544203,0.003668096,0.040905443,6
0.003119361,-0.022101507,0.026902685,6
-0.064664974,0.019051541,-0.107897111,6
-0.003234101,-0.010715016,0.038207406,6
-0.002924656,-0.01226625,-0.024389162,6
0.015676911,0.020740255,0.003761589,6
0.012587979,0.01185509,0.035007605,6
0.00610544,0.005647134,-0.034072911,6
-0.020626002,-0.038364795,-0.061081483,6
-0.003778992,0.056278607,-0.136483821,6
0.02944767,0.002115555,0.075976234,6
-0.03698285,0.009617927,0.08180159,6
-0.033394762,-0.034703171,0.061618649,6
-0.013044218,-0.02962605,-0.039035665,6
0.054210783,0.0415669,-0.049973581,6
0.018890548,0.018529156,0.034431488,6
-0.016582881,0.031247829,0.006124064,6
0.01397185,0.014760407,0.010962711,6
-0.038235068,-0.004731778,0.008098779,6
0.015052437,0.03057845,-0.076906388,6
-0.039848267,0.010047637,-0.051788468,6
0.032079537,-0.015022304,0.030711293,6
0.012657756,0.000275295,0.014895081,6
-0.009484242,0.030473877,0.027216111,6
0.04484324,-0.004779339,0.025398434,6
-0.012424089,0.002409648,-0.082840454,6
0.003498297,0.021925104,-0.081911212,6
-0.007800378,0.028797479,-0.041927995,6
0.016555095,-0.033505066,-0.00406533,6
-0.017760744,-0.017428287,-0.016759766,6
-0.026413656,0.013294157,-0.037329603,6
0.002280262,-0.031723382,-0.071393469,6
0.020517276,-0.030441326,0.026127774,6
0.017669949,0.029507306,0.02338872,6
0.021616658,0.00349727,-0.076980597,6
-0.006476541,0.025680539,-0.020197927,6
-0.031102759,0.017355596,-0.031995376,6
-0.020649149,-0.011043907,0.045417889,6
0.002156481,-0.002234722,0.092197242,6
0.015677538,-0.007254654,0.008683149,6
-0.011841478,-0.017613338,-0.046304301,6
0.034008192,0.018638297,0.033499125,6
0.01521441,0.01424929,0.041037722,6
-0.007410558,-0.017941416,-0.014260134,6
0.017005691,-0.005824295,0.026115383,6
-0.002034015,0.008432024,0.083656207,6
0.027815328,-0.021823274,0.020456125,6
-0.028285835,-0.01741402,-0.014296572,6
-0.004294113,-0.027561543,-0.096306673,6
-0.00553601,0.004764663,-0.012417018,6
-0.028312225,-0.011793502,-0.025357205,6
0.030299114,-0.025649939,-0.010261871,6
-0.06705224,-0.02535565,0.042864254,6
-0.00106097,0.000481875,0.055654947,6
0.064401517,-0.005251774,0.011693025,6
0.006449833,0.00980146,-0.008695109,6
0.012431123,-0.013788655,-0.013539956,6
0.049416094,-0.022185639,0.077171122,6
-0.018601118,0.007051759,0.010708258,6
0.019408739,0.006740039,0.019861599,6
-0.017907963,-0.026875888,0.016206716,6
0.028638046,-0.001226996,-0.008594566,6
-0.006615409,0.024838478,0.01697322,6
0.00211377,-0.000376897,-0.025935168,6
0.001963622,-0.010146878,-0.030669238,6
0.004982764,0.005270278,0.034541848,6
-0.003419,0.003970763,-0.016869714,6
0.009424542,-0.000273592,0.015270103,6
-0.003577269,-0.022875412,0.025925778,6
-0.009259171,-0.004818266,-0.020264967,6
-0.021540355,0.006412834,-0.004048454,6
0.00649005,-0.011425629,-0.043440443,6
-0.005098706,-0.016329688,0.04902464,6
-0.024035852,0.036098345,0.014921589,6
-0.002460609,-0.019442706,-0.016442641,6
0.033690267,-0.032425639,0.018475933,6
0.00623373,0.015594601,0.041479662,6
0.014407042,0.035685533,-0.048635135,6
0.008357397,0.008309068,0.00559173,6
-0.007502041,0.005776048,0.003052822,6
-0.017114602,-0.040193489,0.011566924,6
0.008471117,-0.008831877,0.059723002,6
0.008162375,-0.003497549,-0.004298224,6
-0.01342047,-0.014433603,0.05354992,6
0.007770285,-0.000401936,-0.001656107,6
-0.003188418,0.026677141,-0.060205228,6
-0.005700267,0.01396973,-0.075946045,6
0.016768101,-0.020712995,0.006552813,6
-0.032888645,-0.004139588,-0.006639855,6
-0.031697286,-0.023609135,0.097289442,6
-0.026754249,0.013824686,-0.045872183,6
-0.025112995,0.019814221,-0.115675723,6
0.02596549,0.001534776,0.001711438,6
-0.010674447,-0.008277668,-0.023782496,6
-0.013314754,0.017541304,0.009811868,6
-0.014299748,-0.021655682,-0.036020323,6
-0.038540512,-0.020684145,-0.049778012,6
-0.009467542,0.043099313,-0.008446128,6
0.038877305,0.013818872,0.081244172,6
0.013954136,-0.005255108,0.032748123,6
0.079262917,-0.007519251,-0.096774874,6
-0.10172774,0.040093986,-0.01942384,6
-0.053769116,0.012331033,-0.149793014,6
-0.088923499,-0.09794817,-0.03631396,6
-0.090760135,-0.07556909,0.047490929,6
